2,2,100,1,GDOP, 900720000.0
Time_ms,Pos_X,Pos_Y,Pos_Z,Vel_X,Vel_Y,Vel_Z,Acc_X,Acc_Y,Acc_Z,Jerk_X,Jerk_Y,Jerk_Z,Lat,Long,Height,Heading,Elevation,Bank,Ang-vel_X,Ang-vel_Y,Ang-vel_Z,Ang-acc_X,Ang-acc_Y,Ang-acc_Z,Ant1_Pos_X,Ant1_Pos_Y,Ant1_Pos_Z,Ant1_Vel_X,Ant1_Vel_Y,Ant1_Vel_Z,Ant1_Acc_X,Ant1_Acc_Y,Ant1_Acc_Z,Ant1_Lat,Ant1_Long,Ant1_Height,Ant1_DOP
0,1111095.4115,0.0000,6259149.0379,0.0000,515.0000,0.0000,-0.239,0.000,0.000,0.000,0.000,0.000,1.39626340160,0.00000000000,-400.0000,1.570796327,0.000000000,0.000000000,0.00000000000,-0.00008048707,-0.00045646484,0.00000000000,0.00000000000,0.00000000000,1111095.4115,0.0000,6259149.0379,0.0000,515.0000,0.0000,-0.239,0.000,0.000,1.39626340160,0.00000000000,-400.0000,2.608
100,1111095.4103,51.5000,6259149.0379,-0.0239,515.0000,0.0000,-0.239,0.000,0.000,0.000,0.000,0.000,1.39626340160,0.00004635065,-400.0000,1.570796327,0.000000000,0.000000000,0.00000000000,-0.00008048707,-0.00045646484,0.00000000000,0.00000000000,0.00000000000,1111095.4103,51.5000,6259149.0379,-0.0239,515.0000,0.0000,-0.239,0.000,0.000,1.39626340160,0.00004635065,-400.0000,2.608
200,1111095.4068,103.0000,6259149.0379,-0.0477,515.0000,0.0000,-0.239,0.000,0.000,0.000,0.000,0.000,1.39626340160,0.00009270131,-400.0000,1.570796327,0.000000000,0.000000000,0.00000000000,-0.00008048707,-0.00045646484,0.00000000000,0.00000000000,0.00000000000,1111095.4068,103.0000,6259149.0379,-0.0477,515.0000,0.0000,-0.239,0.000,0.000,1.39626340160,0.00009270131,-400.0000,2.608
300,1111095.4008,154.5000,6259149.0379,-0.0716,515.0000,0.0000,-0.239,0.000,0.000,0.000,0.000,0.000,1.39626340160,0.00013905196,-400.0000,1.570796327,0.000000000,0.000000000,0.00000000000,-0.00008048707,-0.00045646484,0.00000000000,0.00000000000,0.00000000000,1111095.4008,154.5000,6259149.0379,-0.0716,515.0000,0.0000,-0.239,0.000,0.000,1.39626340160,0.00013905196,-400.0000,2.608
400,1111095.3924,206.0000,6259149.0379,-0.0955,515.0000,0.0000,-0.239,0.000,0.000,0.000,0.000,0.000,1.39626340160,0.00018540262,-400.0000,1.570796327,0.000000000,0.000000000,0.00000000000,-0.00008048707,-0.00045646484,0.00000000000,0.00000000000,0.00000000000,1111095.3924,206.0000,6259149.0379,-0.0955,515.0000,0.0000,-0.239,0.000,0.000,1.39626340160,0.00018540262,-400.0000,2.608
500,1111095.3817,257.5000,6259149.0379,-0.1194,515.0000,0.0000,-0.239,0.000,0.000,0.000,0.000,0.000,1.39626340160,0.00023175327,-400.0000,1.570796327,0.000000000,0.000000000,0.00000000000,-0.00008048707,-0.00045646484,0.00000000000,0.00000000000,0.00000000000,1111095.3817,257.5000,6259149.0379,-0.1194,515.0000,0.0000,-0.239,0.000,0.000,1.39626340160,0.00023175327,-400.0000,2.608
600,1111095.3686,309.0000,6259149.0379,-0.1432,515.0000,0.0000,-0.239,0.000,0.000,0.000,0.000,0.000,1.39626340160,0.00027810393,-400.0000,1.570796327,0.000000000,0.000000000,0.00000000000,-0.00008048707,-0.00045646484,0.00000000000,0.00000000000,0.00000000000,1111095.3686,309.0000,6259149.0379,-0.1432,515.0000,0.0000,-0.239,0.000,0.000,1.39626340160,0.00027810393,-400.0000,2.608
700,1111095.3531,360.5000,6259149.0379,-0.1671,515.0000,0.0000,-0.239,0.000,0.000,0.000,0.000,0.000,1.39626340160,0.00032445458,-400.0000,1.570796327,0.000000000,0.000000000,0.00000000000,-0.00008048707,-0.00045646484,0.00000000000,0.00000000000,0.00000000000,1111095.3531,360.5000,6259149.0379,-0.1671,515.0000,0.0000,-0.239,0.000,0.000,1.39626340160,0.00032445458,-400.0000,2.608
800,1111095.3352,412.0000,6259149.0379,-0.1910,515.0000,0.0000,-0.239,0.000,0.000,0.000,0.000,0.000,1.39626340160,0.00037080524,-400.0000,1.570796327,0.000000000,0.000000000,0.00000000000,-0.00008048707,-0.00045646484,0.00000000000,0.00000000000,0.00000000000,1111095.3352,412.0000,6259149.0379,-0.1910,515.0000,0.0000,-0.239,0.000,0.000,1.39626340160,0.00037080524,-400.0000,2.608
900,1111095.3149,463.5000,6259149.0379,-0.2148,515.0000,0.0000,-0.239,0.000,0.000,0.000,0.000,0.000,1.39626340160,0.00041715589,-400.0000,1.570796327,0.000000000,0.000000000,0.00000000000,-0.00008048707,-0.00045646484,0.00000000000,0.00000000000,0.00000000000,1111095.3149,463.5000,6259149.0379,-0.2148,515.0000,0.0000,-0.239,0.000,0.000,1.39626340160,0.00041715589,-400.0000,2.608
1000,1111095.2922,515.0000,6259149.0379,-0.2387,514.9999,0.0000,-0.239,0.000,0.000,0.000,0.000,0.000,1.39626340160,0.00046350655,-400.0000,1.570796327,0.000000000,0.000000000,0.00000000000,-0.00008048707,-0.00045646484,0.00000000000,0.00000000000,0.00000000000,1111095.2922,515.0000,6259149.0379,-0.2387,514.9999,0.0000,-0.239,0.000,0.000,1.39626340160,0.00046350655,-400.0000,2.608
1100,1111095.2671,566.5000,6259149.0379,-0.2626,514.9999,0.0000,-0.239,0.000,0.000,0.000,0.000,0.000,1.39626340160,0.00050985720,-400.0000,1.570796327,0.000000000,0.000000000,0.00000000000,-0.00008048707,-0.00045646484,0.00000000000,0.00000000000,0.00000000000,1111095.2671,566.5000,6259149.0379,-0.2626,514.9999,0.0000,-0.239,0.000,0.000,1.39626340160,0.00050985720,-400.0000,2.608
1200,1111095.2397,618.0000,6259149.0379,-0.2864,514.9999,0.0000,-0.239,0.000,0.000,0.000,0.000,0.000,1.39626340160,0.00055620786,-400.0000,1.570796327,0.000000000,0.000000000,0.00000000000,-0.00008048707,-0.00045646484,0.00000000000,0.00000000000,0.00000000000,1111095.2397,618.0000,6259149.0379,-0.2864,514.9999,0.0000,-0.239,0.000,0.000,1.39626340160,0.00055620786,-400.0000,2.608
1300,1111095.2098,669.5000,6259149.0379,-0.3103,514.9999,0.0000,-0.239,0.000,0.000,0.000,0.000,0.000,1.39626340160,0.00060255851,-400.0000,1.570796327,0.000000000,0.000000000,0.00000000000,-0.00008048707,-0.00045646484,0.00000000000,0.00000000000,0.00000000000,1111095.2098,669.5000,6259149.0379,-0.3103,514.9999,0.0000,-0.239,0.000,0.000,1.39626340160,0.00060255851,-400.0000,2.608
1400,1111095.1776,720.9999,6259149.0379,-0.3342,514.9999,0.0000,-0.239,0.000,0.000,0.000,0.000,0.000,1.39626340160,0.00064890917,-400.0000,1.570796327,0.000000000,0.000000000,0.00000000000,-0.00008048707,-0.00045646484,0.00000000000,0.00000000000,0.00000000000,1111095.1776,720.9999,6259149.0379,-0.3342,514.9999,0.0000,-0.239,0.000,0.000,1.39626340160,0.00064890917,-400.0000,2.608
1500,1111095.1430,772.4999,6259149.0379,-0.3581,514.9999,0.0000,-0.239,0.000,0.000,0.000,0.000,0.000,1.39626340160,0.00069525982,-400.0000,1.570796327,0.000000000,0.000000000,0.00000000000,-0.00008048707,-0.00045646484,0.00000000000,0.00000000000,0.00000000000,1111095.1430,772.4999,6259149.0379,-0.3581,514.9999,0.0000,-0.239,0.000,0.000,1.39626340160,0.00069525982,-400.0000,2.608
1600,1111095.1060,823.9999,6259149.0379,-0.3819,514.9999,0.0000,-0.239,0.000,0.000,0.000,0.000,0.000,1.39626340160,0.00074161048,-400.0000,1.570796327,0.000000000,0.000000000,0.00000000000,-0.00008048707,-0.00045646484,0.00000000000,0.00000000000,0.00000000000,1111095.1060,823.9999,6259149.0379,-0.3819,514.9999,0.0000,-0.239,0.000,0.000,1.39626340160,0.00074161048,-400.0000,2.608
1700,1111095.0666,875.4999,6259149.0379,-0.4058,514.9998,0.0000,-0.239,0.000,0.000,0.000,0.000,0.000,1.39626340160,0.00078796113,-400.0000,1.570796327,0.000000000,0.000000000,0.00000000000,-0.00008048707,-0.00045646484,0.00000000000,0.00000000000,0.00000000000,1111095.0666,875.4999,6259149.0379,-0.4058,514.9998,0.0000,-0.239,0.000,0.000,1.39626340160,0.00078796113,-400.0000,2.608
1800,1111095.0248,926.9999,6259149.0379,-0.4297,514.9998,0.0000,-0.239,0.000,0.000,0.000,0.000,0.000,1.39626340160,0.00083431179,-400.0000,1.570796327,0.000000000,0.000000000,0.00000000000,-0.00008048707,-0.00045646484,0.00000000000,0.00000000000,0.00000000000,1111095.0248,926.9999,6259149.0379,-0.4297,514.9998,0.0000,-0.239,0.000,0.000,1.39626340160,0.00083431179,-400.0000,2.608
1900,1111094.9807,978.4999,6259149.0379,-0.4535,514.9998,0.0000,-0.239,0.000,0.000,0.000,0.000,0.000,1.39626340160,0.00088066244,-400.0000,1.570796327,0.000000000,0.000000000,0.00000000000,-0.00008048707,-0.00045646484,0.00000000000,0.00000000000,0.00000000000,1111094.9807,978.4999,6259149.0379,-0.4535,514.9998,0.0000,-0.239,0.000,0.000,1.39626340160,0.00088066244,-400.0000,2.608
2000,1111094.9341,1029.9999,6259149.0379,-0.4774,514.9998,0.0000,-0.239,0.000,0.000,0.000,0.000,0.000,1.39626340160,0.00092701310,-400.0000,1.570796327,0.000000000,0.000000000,0.00000000000,-0.00008048707,-0.00045646484,0.00000000000,0.00000000000,0.00000000000,1111094.9341,1029.9999,6259149.0379,-0.4774,514.9998,0.0000,-0.239,0.000,0.000,1.39626340160,0.00092701310,-400.0000,2.608
2100,1111094.8852,1081.4998,6259149.0379,-0.5013,514.9998,0.0000,-0.239,0.000,0.000,0.000,0.000,0.000,1.39626340160,0.00097336375,-400.0000,1.570796327,0.000000000,0.000000000,0.00000000000,-0.00008048707,-0.00045646484,0.00000000000,0.00000000000,0.00000000000,1111094.8852,1081.4998,6259149.0379,-0.5013,514.9998,0.0000,-0.239,0.000,0.000,1.39626340160,0.00097336375,-400.0000,2.608
2200,1111094.8339,1132.9998,6259149.0379,-0.5252,514.9997,0.0000,-0.239,0.000,0.000,0.000,0.000,0.000,1.39626340160,0.00101971441,-400.0000,1.570796327,0.000000000,0.000000000,0.00000000000,-0.00008048707,-0.00045646484,0.00000000000,0.00000000000,0.00000000000,1111094.8339,1132.9998,6259149.0379,-0.5252,514.9997,0.0000,-0.239,0.000,0.000,1.39626340160,0.00101971441,-400.0000,2.608
2300,1111094.7802,1184.4998,6259149.0379,-0.5490,514.9997,0.0000,-0.239,0.000,0.000,0.000,0.000,0.000,1.39626340160,0.00106606506,-400.0000,1.570796327,0.000000000,0.000000000,0.00000000000,-0.00008048707,-0.00045646484,0.00000000000,0.00000000000,0.00000000000,1111094.7802,1184.4998,6259149.0379,-0.5490,514.9997,0.0000,-0.239,0.000,0.000,1.39626340160,0.00106606506,-400.0000,2.608
2400,1111094.7241,1235.9997,6259149.0379,-0.5729,514.9997,0.0000,-0.239,0.000,0.000,0.000,0.000,0.000,1.39626340160,0.00111241572,-400.0000,1.570796327,0.000000000,0.000000000,0.00000000000,-0.00008048707,-0.00045646484,0.00000000000,0.00000000000,0.00000000000,1111094.7241,1235.9997,6259149.0379,-0.5729,514.9997,0.0000,-0.239,0.000,0.000,1.39626340160,0.00111241572,-400.0000,2.608
2500,1111094.6656,1287.4997,6259149.0379,-0.5968,514.9997,0.0000,-0.239,0.000,0.000,0.000,0.000,0.000,1.39626340160,0.00115876637,-400.0000,1.570796327,0.000000000,0.000000000,0.00000000000,-0.00008048707,-0.00045646484,0.00000000000,0.00000000000,0.00000000000,1111094.6656,1287.4997,6259149.0379,-0.5968,514.9997,0.0000,-0.239,0.000,0.000,1.39626340160,0.00115876637,-400.0000,2.608
2600,1111094.6047,1338.9997,6259149.0379,-0.6206,514.9996,0.0000,-0.239,0.000,0.000,0.000,0.000,0.000,1.39626340160,0.00120511703,-400.0000,1.570796327,0.000000000,0.000000000,0.00000000000,-0.00008048707,-0.00045646484,0.00000000000,0.00000000000,0.00000000000,1111094.6047,1338.9997,6259149.0379,-0.6206,514.9996,0.0000,-0.239,0.000,0.000,1.39626340160,0.00120511703,-400.0000,2.608
2700,1111094.5415,1390.4996,6259149.0379,-0.6445,514.9996,0.0000,-0.239,0.000,0.000,0.000,0.000,0.000,1.39626340160,0.00125146768,-400.0000,1.570796327,0.000000000,0.000000000,0.00000000000,-0.00008048707,-0.00045646484,0.00000000000,0.00000000000,0.00000000000,1111094.5415,1390.4996,6259149.0379,-0.6445,514.9996,0.0000,-0.239,0.000,0.000,1.39626340160,0.00125146768,-400.0000,2.608
2800,1111094.4758,1441.9996,6259149.0379,-0.6684,514.9996,0.0000,-0.239,0.000,0.000,0.000,0.000,0.000,1.39626340160,0.00129781834,-400.0000,1.570796327,0.000000000,0.000000000,0.00000000000,-0.00008048707,-0.00045646484,0.00000000000,0.00000000000,0.00000000000,1111094.4758,1441.9996,6259149.0379,-0.6684,514.9996,0.0000,-0.239,0.000,0.000,1.39626340160,0.00129781834,-400.0000,2.608
2900,1111094.4078,1493.4996,6259149.0379,-0.6922,514.9995,0.0000,-0.239,0.000,0.000,0.000,0.000,0.000,1.39626340160,0.00134416899,-400.0000,1.570796327,0.000000000,0.000000000,0.00000000000,-0.00008048707,-0.00045646484,0.00000000000,0.00000000000,0.00000000000,1111094.4078,1493.4996,6259149.0379,-0.6922,514.9995,0.0000,-0.239,0.000,0.000,1.39626340160,0.00134416899,-400.0000,2.608
3000,1111094.3374,1544.9995,6259149.0379,-0.7161,514.9995,0.0000,-0.239,0.000,0.000,0.000,0.000,0.000,1.39626340160,0.00139051965,-400.0000,1.570796327,0.000000000,0.000000000,0.00000000000,-0.00008048707,-0.00045646484,0.00000000000,0.00000000000,0.00000000000,1111094.3374,1544.9995,6259149.0379,-0.7161,514.9995,0.0000,-0.239,0.000,0.000,1.39626340160,0.00139051965,-400.0000,2.608
3100,1111094.2646,1596.4995,6259149.0379,-0.7400,514.9995,0.0000,-0.239,0.000,0.000,0.000,0.000,0.000,1.39626340160,0.00143687030,-400.0000,1.570796327,0.000000000,0.000000000,0.00000000000,-0.00008048707,-0.00045646484,0.00000000000,0.00000000000,0.00000000000,1111094.2646,1596.4995,6259149.0379,-0.7400,514.9995,0.0000,-0.239,0.000,0.000,1.39626340160,0.00143687030,-400.0000,2.608
3200,1111094.1894,1647.9994,6259149.0379,-0.7639,514.9994,0.0000,-0.239,0.000,0.000,0.000,0.000,0.000,1.39626340160,0.00148322096,-400.0000,1.570796327,0.000000000,0.000000000,0.00000000000,-0.00008048707,-0.00045646484,0.00000000000,0.00000000000,0.00000000000,1111094.1894,1647.9994,6259149.0379,-0.7639,514.9994,0.0000,-0.239,0.000,0.000,1.39626340160,0.00148322096,-400.0000,2.608
3300,1111094.1118,1699.4993,6259149.0379,-0.7877,514.9994,0.0000,-0.239,0.000,0.000,0.000,0.000,0.000,1.39626340160,0.00152957161,-400.0000,1.570796327,0.000000000,0.000000000,0.00000000000,-0.00008048707,-0.00045646484,0.00000000000,0.00000000000,0.00000000000,1111094.1118,1699.4993,6259149.0379,-0.7877,514.9994,0.0000,-0.239,0.000,0.000,1.39626340160,0.00152957161,-400.0000,2.608
3400,1111094.0318,1750.9993,6259149.0379,-0.8116,514.9994,0.0000,-0.239,0.000,0.000,0.000,0.000,0.000,1.39626340160,0.00157592227,-400.0000,1.570796327,0.000000000,0.000000000,0.00000000000,-0.00008048707,-0.00045646484,0.00000000000,0.00000000000,0.00000000000,1111094.0318,1750.9993,6259149.0379,-0.8116,514.9994,0.0000,-0.239,0.000,0.000,1.39626340160,0.00157592227,-400.0000,2.608
3500,1111093.9495,1802.4992,6259149.0379,-0.8355,514.9993,0.0000,-0.239,0.000,0.000,0.000,0.000,0.000,1.39626340160,0.00162227292,-400.0000,1.570796327,0.000000000,0.000000000,0.00000000000,-0.00008048707,-0.00045646484,0.00000000000,0.00000000000,0.00000000000,1111093.9495,1802.4992,6259149.0379,-0.8355,514.9993,0.0000,-0.239,0.000,0.000,1.39626340160,0.00162227292,-400.0000,2.608
3600,1111093.8647,1853.9991,6259149.0379,-0.8593,514.9993,0.0000,-0.239,0.000,0.000,0.000,0.000,0.000,1.39626340160,0.00166862358,-400.0000,1.570796327,0.000000000,0.000000000,0.00000000000,-0.00008048707,-0.00045646484,0.00000000000,0.00000000000,0.00000000000,1111093.8647,1853.9991,6259149.0379,-0.8593,514.9993,0.0000,-0.239,0.000,0.000,1.39626340160,0.00166862358,-400.0000,2.608
3700,1111093.7776,1905.4991,6259149.0379,-0.8832,514.9992,0.0000,-0.239,0.000,0.000,0.000,0.000,0.000,1.39626340160,0.00171497423,-400.0000,1.570796327,0.000000000,0.000000000,0.00000000000,-0.00008048707,-0.00045646484,0.00000000000,0.00000000000,0.00000000000,1111093.7776,1905.4991,6259149.0379,-0.8832,514.9992,0.0000,-0.239,0.000,0.000,1.39626340160,0.00171497423,-400.0000,2.608
3800,1111093.6881,1956.9990,6259149.0379,-0.9071,514.9992,0.0000,-0.239,0.000,0.000,0.000,0.000,0.000,1.39626340160,0.00176132489,-400.0000,1.570796327,0.000000000,0.000000000,0.00000000000,-0.00008048707,-0.00045646484,0.00000000000,0.00000000000,0.00000000000,1111093.6881,1956.9990,6259149.0379,-0.9071,514.9992,0.0000,-0.239,0.000,0.000,1.39626340160,0.00176132489,-400.0000,2.608
3900,1111093.5962,2008.4989,6259149.0379,-0.9310,514.9992,0.0000,-0.239,0.000,0.000,0.000,0.000,0.000,1.39626340160,0.00180767554,-400.0000,1.570796327,0.000000000,0.000000000,0.00000000000,-0.00008048707,-0.00045646484,0.00000000000,0.00000000000,0.00000000000,1111093.5962,2008.4989,6259149.0379,-0.9310,514.9992,0.0000,-0.239,0.000,0.000,1.39626340160,0.00180767554,-400.0000,2.608
4000,1111093.5019,2059.9988,6259149.0379,-0.9548,514.9991,0.0000,-0.239,0.000,0.000,0.000,0.000,0.000,1.39626340160,0.00185402620,-400.0000,1.570796327,0.000000000,0.000000000,0.00000000000,-0.00008048707,-0.00045646484,0.00000000000,0.00000000000,0.00000000000,1111093.5019,2059.9988,6259149.0379,-0.9548,514.9991,0.0000,-0.239,0.000,0.000,1.39626340160,0.00185402620,-400.0000,2.608
4100,1111093.4052,2111.4987,6259149.0379,-0.9787,514.9991,0.0000,-0.239,0.000,0.000,0.000,0.000,0.000,1.39626340160,0.00190037685,-400.0000,1.570796327,0.000000000,0.000000000,0.00000000000,-0.00008048707,-0.00045646484,0.00000000000,0.00000000000,0.00000000000,1111093.4052,2111.4987,6259149.0379,-0.9787,514.9991,0.0000,-0.239,0.000,0.000,1.39626340160,0.00190037685,-400.0000,2.608
4200,1111093.3062,2162.9986,6259149.0379,-1.0026,514.9990,0.0000,-0.239,0.000,0.000,0.000,0.000,0.000,1.39626340160,0.00194672751,-400.0000,1.570796327,0.000000000,0.000000000,0.00000000000,-0.00008048707,-0.00045646484,0.00000000000,0.00000000000,0.00000000000,1111093.3062,2162.9986,6259149.0379,-1.0026,514.9990,0.0000,-0.239,0.000,0.000,1.39626340160,0.00194672751,-400.0000,2.608
4300,1111093.2047,2214.4985,6259149.0379,-1.0264,514.9990,0.0000,-0.239,0.000,0.000,0.000,0.000,0.000,1.39626340160,0.00199307816,-400.0000,1.570796327,0.000000000,0.000000000,0.00000000000,-0.00008048707,-0.00045646484,0.00000000000,0.00000000000,0.00000000000,1111093.2047,2214.4985,6259149.0379,-1.0264,514.9990,0.0000,-0.239,0.000,0.000,1.39626340160,0.00199307816,-400.0000,2.608
4400,1111093.1009,2265.9984,6259149.0379,-1.0503,514.9989,0.0000,-0.239,0.000,0.000,0.000,0.000,0.000,1.39626340160,0.00203942882,-400.0000,1.570796327,0.000000000,0.000000000,0.00000000000,-0.00008048707,-0.00045646484,0.00000000000,0.00000000000,0.00000000000,1111093.1009,2265.9984,6259149.0379,-1.0503,514.9989,0.0000,-0.239,0.000,0.000,1.39626340160,0.00203942882,-400.0000,2.608
4500,1111092.9946,2317.4983,6259149.0379,-1.0742,514.9989,0.0000,-0.239,0.000,0.000,0.000,0.000,0.000,1.39626340160,0.00208577947,-400.0000,1.570796327,0.000000000,0.000000000,0.00000000000,-0.00008048707,-0.00045646484,0.00000000000,0.00000000000,0.00000000000,1111092.9946,2317.4983,6259149.0379,-1.0742,514.9989,0.0000,-0.239,0.000,0.000,1.39626340160,0.00208577947,-400.0000,2.608
4600,1111092.8860,2368.9982,6259149.0379,-1.0980,514.9988,0.0000,-0.239,-0.001,0.000,0.000,0.000,0.000,1.39626340160,0.00213213013,-400.0000,1.570796327,0.000000000,0.000000000,0.00000000000,-0.00008048707,-0.00045646484,0.00000000000,0.00000000000,0.00000000000,1111092.8860,2368.9982,6259149.0379,-1.0980,514.9988,0.0000,-0.239,-0.001,0.000,1.39626340160,0.00213213013,-400.0000,2.608
4700,1111092.7750,2420.4981,6259149.0379,-1.1219,514.9988,0.0000,-0.239,-0.001,0.000,0.000,0.000,0.000,1.39626340160,0.00217848078,-400.0000,1.570796327,0.000000000,0.000000000,0.00000000000,-0.00008048707,-0.00045646484,0.00000000000,0.00000000000,0.00000000000,1111092.7750,2420.4981,6259149.0379,-1.1219,514.9988,0.0000,-0.239,-0.001,0.000,1.39626340160,0.00217848078,-400.0000,2.608
4800,1111092.6616,2471.9980,6259149.0379,-1.1458,514.9987,0.0000,-0.239,-0.001,0.000,0.000,0.000,0.000,1.39626340160,0.00222483144,-400.0000,1.570796327,0.000000000,0.000000000,0.00000000000,-0.00008048707,-0.00045646484,0.00000000000,0.00000000000,0.00000000000,1111092.6616,2471.9980,6259149.0379,-1.1458,514.9987,0.0000,-0.239,-0.001,0.000,1.39626340160,0.00222483144,-400.0000,2.608
4900,1111092.5459,2523.4978,6259149.0379,-1.1697,514.9987,0.0000,-0.239,-0.001,0.000,0.000,0.000,0.000,1.39626340160,0.00227118209,-400.0000,1.570796327,0.000000000,0.000000000,0.00000000000,-0.00008048707,-0.00045646484,0.00000000000,0.00000000000,0.00000000000,1111092.5459,2523.4978,6259149.0379,-1.1697,514.9987,0.0000,-0.239,-0.001,0.000,1.39626340160,0.00227118209,-400.0000,2.608
5000,1111092.4277,2574.9977,6259149.0379,-1.1935,514.9986,0.0000,-0.239,-0.001,0.000,0.000,0.000,0.000,1.39626340160,0.00231753275,-400.0000,1.570796327,0.000000000,0.000000000,0.00000000000,-0.00008048707,-0.00045646484,0.00000000000,0.00000000000,0.00000000000,1111092.4277,2574.9977,6259149.0379,-1.1935,514.9986,0.0000,-0.239,-0.001,0.000,1.39626340160,0.00231753275,-400.0000,2.608
5100,1111092.3072,2626.4976,6259149.0379,-1.2174,514.9986,0.0000,-0.239,-0.001,0.000,0.000,0.000,0.000,1.39626340160,0.00236388340,-400.0000,1.570796327,0.000000000,0.000000000,0.00000000000,-0.00008048707,-0.00045646484,0.00000000000,0.00000000000,0.00000000000,1111092.3072,2626.4976,6259149.0379,-1.2174,514.9986,0.0000,-0.239,-0.001,0.000,1.39626340160,0.00236388340,-400.0000,2.608
5200,1111092.1842,2677.9974,6259149.0379,-1.2413,514.9985,0.0000,-0.239,-0.001,0.000,0.000,0.000,0.000,1.39626340160,0.00241023406,-400.0000,1.570796327,0.000000000,0.000000000,0.00000000000,-0.00008048707,-0.00045646484,0.00000000000,0.00000000000,0.00000000000,1111092.1842,2677.9974,6259149.0379,-1.2413,514.9985,0.0000,-0.239,-0.001,0.000,1.39626340160,0.00241023406,-400.0000,2.608
5300,1111092.0589,2729.4973,6259149.0379,-1.2651,514.9984,0.0000,-0.239,-0.001,0.000,0.000,0.000,0.000,1.39626340160,0.00245658471,-400.0000,1.570796327,0.000000000,0.000000000,0.00000000000,-0.00008048707,-0.00045646484,0.00000000000,0.00000000000,0.00000000000,1111092.0589,2729.4973,6259149.0379,-1.2651,514.9984,0.0000,-0.239,-0.001,0.000,1.39626340160,0.00245658471,-400.0000,2.608
5400,1111091.9312,2780.9971,6259149.0379,-1.2890,514.9984,0.0000,-0.239,-0.001,0.000,0.000,0.000,0.000,1.39626340160,0.00250293537,-400.0000,1.570796327,0.000000000,0.000000000,0.00000000000,-0.00008048707,-0.00045646484,0.00000000000,0.00000000000,0.00000000000,1111091.9312,2780.9971,6259149.0379,-1.2890,514.9984,0.0000,-0.239,-0.001,0.000,1.39626340160,0.00250293537,-400.0000,2.608
5500,1111091.8011,2832.4969,6259149.0379,-1.3129,514.9983,0.0000,-0.239,-0.001,0.000,0.000,0.000,0.000,1.39626340160,0.00254928602,-400.0000,1.570796327,0.000000000,0.000000000,0.00000000000,-0.00008048707,-0.00045646484,0.00000000000,0.00000000000,0.00000000000,1111091.8011,2832.4969,6259149.0379,-1.3129,514.9983,0.0000,-0.239,-0.001,0.000,1.39626340160,0.00254928602,-400.0000,2.608
5600,1111091.6686,2883.9968,6259149.0379,-1.3368,514.9983,0.0000,-0.239,-0.001,0.000,0.000,0.000,0.000,1.39626340160,0.00259563668,-400.0000,1.570796327,0.000000000,0.000000000,0.00000000000,-0.00008048707,-0.00045646484,0.00000000000,0.00000000000,0.00000000000,1111091.6686,2883.9968,6259149.0379,-1.3368,514.9983,0.0000,-0.239,-0.001,0.000,1.39626340160,0.00259563668,-400.0000,2.608
5700,1111091.5338,2935.4966,6259149.0379,-1.3606,514.9982,0.0000,-0.239,-0.001,0.000,0.000,0.000,0.000,1.39626340160,0.00264198733,-400.0000,1.570796327,0.000000000,0.000000000,0.00000000000,-0.00008048707,-0.00045646484,0.00000000000,0.00000000000,0.00000000000,1111091.5338,2935.4966,6259149.0379,-1.3606,514.9982,0.0000,-0.239,-0.001,0.000,1.39626340160,0.00264198733,-400.0000,2.608
5800,1111091.3965,2986.9964,6259149.0379,-1.3845,514.9981,0.0000,-0.239,-0.001,0.000,0.000,0.000,0.000,1.39626340160,0.00268833799,-400.0000,1.570796327,0.000000000,0.000000000,0.00000000000,-0.00008048707,-0.00045646484,0.00000000000,0.00000000000,0.00000000000,1111091.3965,2986.9964,6259149.0379,-1.3845,514.9981,0.0000,-0.239,-0.001,0.000,1.39626340160,0.00268833799,-400.0000,2.608
5900,1111091.2569,3038.4962,6259149.0379,-1.4084,514.9981,0.0000,-0.239,-0.001,0.000,0.000,0.000,0.000,1.39626340160,0.00273468864,-400.0000,1.570796327,0.000000000,0.000000000,0.00000000000,-0.00008048707,-0.00045646484,0.00000000000,0.00000000000,0.00000000000,1111091.2569,3038.4962,6259149.0379,-1.4084,514.9981,0.0000,-0.239,-0.001,0.000,1.39626340160,0.00273468864,-400.0000,2.608
6000,1111091.1148,3089.9960,6259149.0379,-1.4322,514.9980,0.0000,-0.239,-0.001,0.000,0.000,0.000,0.000,1.39626340160,0.00278103930,-400.0000,1.570796327,0.000000000,0.000000000,0.00000000000,-0.00008048707,-0.00045646484,0.00000000000,0.00000000000,0.00000000000,1111091.1148,3089.9960,6259149.0379,-1.4322,514.9980,0.0000,-0.239,-0.001,0.000,1.39626340160,0.00278103930,-400.0000,2.611
6100,1111090.9704,3141.4958,6259149.0379,-1.4561,514.9979,0.0000,-0.239,-0.001,0.000,0.000,0.000,0.000,1.39626340160,0.00282738995,-400.0000,1.570796327,0.000000000,0.000000000,0.00000000000,-0.00008048707,-0.00045646484,0.00000000000,0.00000000000,0.00000000000,1111090.9704,3141.4958,6259149.0379,-1.4561,514.9979,0.0000,-0.239,-0.001,0.000,1.39626340160,0.00282738995,-400.0000,2.611
6200,1111090.8236,3192.9956,6259149.0379,-1.4800,514.9979,0.0000,-0.239,-0.001,0.000,0.000,0.000,0.000,1.39626340160,0.00287374060,-400.0000,1.570796327,0.000000000,0.000000000,0.00000000000,-0.00008048707,-0.00045646484,0.00000000000,0.00000000000,0.00000000000,1111090.8236,3192.9956,6259149.0379,-1.4800,514.9979,0.0000,-0.239,-0.001,0.000,1.39626340160,0.00287374060,-400.0000,2.611
6300,1111090.6744,3244.4954,6259149.0379,-1.5038,514.9978,0.0000,-0.239,-0.001,0.000,0.000,0.000,0.000,1.39626340160,0.00292009126,-400.0000,1.570796327,0.000000000,0.000000000,0.00000000000,-0.00008048707,-0.00045646484,0.00000000000,0.00000000000,0.00000000000,1111090.6744,3244.4954,6259149.0379,-1.5038,514.9978,0.0000,-0.239,-0.001,0.000,1.39626340160,0.00292009126,-400.0000,2.611
6400,1111090.5228,3295.9952,6259149.0379,-1.5277,514.9977,0.0000,-0.239,-0.001,0.000,0.000,0.000,0.000,1.39626340160,0.00296644191,-400.0000,1.570796327,0.000000000,0.000000000,0.00000000000,-0.00008048707,-0.00045646484,0.00000000000,0.00000000000,0.00000000000,1111090.5228,3295.9952,6259149.0379,-1.5277,514.9977,0.0000,-0.239,-0.001,0.000,1.39626340160,0.00296644191,-400.0000,2.611
6500,1111090.3689,3347.4949,6259149.0379,-1.5516,514.9977,0.0000,-0.239,-0.001,0.000,0.000,0.000,0.000,1.39626340160,0.00301279257,-400.0000,1.570796327,0.000000000,0.000000000,0.00000000000,-0.00008048707,-0.00045646484,0.00000000000,0.00000000000,0.00000000000,1111090.3689,3347.4949,6259149.0379,-1.5516,514.9977,0.0000,-0.239,-0.001,0.000,1.39626340160,0.00301279257,-400.0000,2.611
6600,1111090.2125,3398.9947,6259149.0379,-1.5755,514.9976,0.0000,-0.239,-0.001,0.000,0.000,0.000,0.000,1.39626340160,0.00305914322,-400.0000,1.570796327,0.000000000,0.000000000,0.00000000000,-0.00008048707,-0.00045646484,0.00000000000,0.00000000000,0.00000000000,1111090.2125,3398.9947,6259149.0379,-1.5755,514.9976,0.0000,-0.239,-0.001,0.000,1.39626340160,0.00305914322,-400.0000,2.611
6700,1111090.0538,3450.4945,6259149.0379,-1.5993,514.9975,0.0000,-0.239,-0.001,0.000,0.000,0.000,0.000,1.39626340160,0.00310549388,-400.0000,1.570796327,0.000000000,0.000000000,0.00000000000,-0.00008048707,-0.00045646484,0.00000000000,0.00000000000,0.00000000000,1111090.0538,3450.4945,6259149.0379,-1.5993,514.9975,0.0000,-0.239,-0.001,0.000,1.39626340160,0.00310549388,-400.0000,2.611
6800,1111089.8927,3501.9942,6259149.0379,-1.6232,514.9974,0.0000,-0.239,-0.001,0.000,0.000,0.000,0.000,1.39626340160,0.00315184453,-400.0000,1.570796327,0.000000000,0.000000000,0.00000000000,-0.00008048707,-0.00045646484,0.00000000000,0.00000000000,0.00000000000,1111089.8927,3501.9942,6259149.0379,-1.6232,514.9974,0.0000,-0.239,-0.001,0.000,1.39626340160,0.00315184453,-400.0000,2.611
6900,1111089.7292,3553.4939,6259149.0379,-1.6471,514.9974,0.0000,-0.239,-0.001,0.000,0.000,0.000,0.000,1.39626340160,0.00319819519,-400.0000,1.570796327,0.000000000,0.000000000,0.00000000000,-0.00008048707,-0.00045646484,0.00000000000,0.00000000000,0.00000000000,1111089.7292,3553.4939,6259149.0379,-1.6471,514.9974,0.0000,-0.239,-0.001,0.000,1.39626340160,0.00319819519,-400.0000,2.611
7000,1111089.5633,3604.9937,6259149.0379,-1.6709,514.9973,0.0000,-0.239,-0.001,0.000,0.000,0.000,0.000,1.39626340160,0.00324454584,-400.0000,1.570796327,0.000000000,0.000000000,0.00000000000,-0.00008048707,-0.00045646484,0.00000000000,0.00000000000,0.00000000000,1111089.5633,3604.9937,6259149.0379,-1.6709,514.9973,0.0000,-0.239,-0.001,0.000,1.39626340160,0.00324454584,-400.0000,2.611
7100,1111089.3950,3656.4934,6259149.0379,-1.6948,514.9972,0.0000,-0.239,-0.001,0.000,0.000,0.000,0.000,1.39626340160,0.00329089650,-400.0000,1.570796327,0.000000000,0.000000000,0.00000000000,-0.00008048707,-0.00045646484,0.00000000000,0.00000000000,0.00000000000,1111089.3950,3656.4934,6259149.0379,-1.6948,514.9972,0.0000,-0.239,-0.001,0.000,1.39626340160,0.00329089650,-400.0000,2.611
7200,1111089.2243,3707.9931,6259149.0379,-1.7187,514.9971,0.0000,-0.239,-0.001,0.000,0.000,0.000,0.000,1.39626340160,0.00333724715,-400.0000,1.570796327,0.000000000,0.000000000,0.00000000000,-0.00008048707,-0.00045646484,0.00000000000,0.00000000000,0.00000000000,1111089.2243,3707.9931,6259149.0379,-1.7187,514.9971,0.0000,-0.239,-0.001,0.000,1.39626340160,0.00333724715,-400.0000,2.611
7300,1111089.0512,3759.4928,6259149.0379,-1.7425,514.9971,0.0000,-0.239,-0.001,0.000,0.000,0.000,0.000,1.39626340160,0.00338359781,-400.0000,1.570796327,0.000000000,0.000000000,0.00000000000,-0.00008048707,-0.00045646484,0.00000000000,0.00000000000,0.00000000000,1111089.0512,3759.4928,6259149.0379,-1.7425,514.9971,0.0000,-0.239,-0.001,0.000,1.39626340160,0.00338359781,-400.0000,2.611
7400,1111088.8758,3810.9925,6259149.0379,-1.7664,514.9970,0.0000,-0.239,-0.001,0.000,0.000,0.000,0.000,1.39626340160,0.00342994846,-400.0000,1.570796327,0.000000000,0.000000000,0.00000000000,-0.00008048707,-0.00045646484,0.00000000000,0.00000000000,0.00000000000,1111088.8758,3810.9925,6259149.0379,-1.7664,514.9970,0.0000,-0.239,-0.001,0.000,1.39626340160,0.00342994846,-400.0000,2.611
7500,1111088.6979,3862.4922,6259149.0379,-1.7903,514.9969,0.0000,-0.239,-0.001,0.000,0.000,0.000,0.000,1.39626340160,0.00347629912,-400.0000,1.570796327,0.000000000,0.000000000,0.00000000000,-0.00008048707,-0.00045646484,0.00000000000,0.00000000000,0.00000000000,1111088.6979,3862.4922,6259149.0379,-1.7903,514.9969,0.0000,-0.239,-0.001,0.000,1.39626340160,0.00347629912,-400.0000,2.611
7600,1111088.5177,3913.9919,6259149.0379,-1.8142,514.9968,0.0000,-0.239,-0.001,0.000,0.000,0.000,0.000,1.39626340160,0.00352264977,-400.0000,1.570796327,0.000000000,0.000000000,0.00000000000,-0.00008048707,-0.00045646484,0.00000000000,0.00000000000,0.00000000000,1111088.5177,3913.9919,6259149.0379,-1.8142,514.9968,0.0000,-0.239,-0.001,0.000,1.39626340160,0.00352264977,-400.0000,2.611
7700,1111088.3351,3965.4916,6259149.0379,-1.8380,514.9967,0.0000,-0.239,-0.001,0.000,0.000,0.000,0.000,1.39626340160,0.00356900043,-400.0000,1.570796327,0.000000000,0.000000000,0.00000000000,-0.00008048707,-0.00045646484,0.00000000000,0.00000000000,0.00000000000,1111088.3351,3965.4916,6259149.0379,-1.8380,514.9967,0.0000,-0.239,-0.001,0.000,1.39626340160,0.00356900043,-400.0000,2.611
7800,1111088.1501,4016.9912,6259149.0379,-1.8619,514.9966,0.0000,-0.239,-0.001,0.000,0.000,0.000,0.000,1.39626340160,0.00361535108,-400.0000,1.570796327,0.000000000,0.000000000,0.00000000000,-0.00008048707,-0.00045646484,0.00000000000,0.00000000000,0.00000000000,1111088.1501,4016.9912,6259149.0379,-1.8619,514.9966,0.0000,-0.239,-0.001,0.000,1.39626340160,0.00361535108,-400.0000,2.611
7900,1111087.9627,4068.4909,6259149.0379,-1.8858,514.9965,0.0000,-0.239,-0.001,0.000,0.000,0.000,0.000,1.39626340160,0.00366170174,-400.0000,1.570796327,0.000000000,0.000000000,0.00000000000,-0.00008048707,-0.00045646484,0.00000000000,0.00000000000,0.00000000000,1111087.9627,4068.4909,6259149.0379,-1.8858,514.9965,0.0000,-0.239,-0.001,0.000,1.39626340160,0.00366170174,-400.0000,2.611
8000,1111087.7730,4119.9906,6259149.0379,-1.9096,514.9965,0.0000,-0.239,-0.001,0.000,0.000,0.000,0.000,1.39626340160,0.00370805239,-400.0000,1.570796327,0.000000000,0.000000000,0.00000000000,-0.00008048707,-0.00045646484,0.00000000000,0.00000000000,0.00000000000,1111087.7730,4119.9906,6259149.0379,-1.9096,514.9965,0.0000,-0.239,-0.001,0.000,1.39626340160,0.00370805239,-400.0000,2.611
8100,1111087.5808,4171.4902,6259149.0379,-1.9335,514.9964,0.0000,-0.239,-0.001,0.000,0.000,0.000,0.000,1.39626340160,0.00375440305,-400.0000,1.570796327,0.000000000,0.000000000,0.00000000000,-0.00008048707,-0.00045646484,0.00000000000,0.00000000000,0.00000000000,1111087.5808,4171.4902,6259149.0379,-1.9335,514.9964,0.0000,-0.239,-0.001,0.000,1.39626340160,0.00375440305,-400.0000,2.611
8200,1111087.3863,4222.9898,6259149.0379,-1.9574,514.9963,0.0000,-0.239,-0.001,0.000,0.000,0.000,0.000,1.39626340160,0.00380075370,-400.0000,1.570796327,0.000000000,0.000000000,0.00000000000,-0.00008048707,-0.00045646484,0.00000000000,0.00000000000,0.00000000000,1111087.3863,4222.9898,6259149.0379,-1.9574,514.9963,0.0000,-0.239,-0.001,0.000,1.39626340160,0.00380075370,-400.0000,2.611
8300,1111087.1893,4274.4895,6259149.0379,-1.9813,514.9962,0.0000,-0.239,-0.001,0.000,0.000,0.000,0.000,1.39626340160,0.00384710436,-400.0000,1.570796327,0.000000000,0.000000000,0.00000000000,-0.00008048707,-0.00045646484,0.00000000000,0.00000000000,0.00000000000,1111087.1893,4274.4895,6259149.0379,-1.9813,514.9962,0.0000,-0.239,-0.001,0.000,1.39626340160,0.00384710436,-400.0000,2.611
8400,1111086.9900,4325.9891,6259149.0379,-2.0051,514.9961,0.0000,-0.239,-0.001,0.000,0.000,0.000,0.000,1.39626340160,0.00389345501,-400.0000,1.570796327,0.000000000,0.000000000,0.00000000000,-0.00008048707,-0.00045646484,0.00000000000,0.00000000000,0.00000000000,1111086.9900,4325.9891,6259149.0379,-2.0051,514.9961,0.0000,-0.239,-0.001,0.000,1.39626340160,0.00389345501,-400.0000,2.611
8500,1111086.7883,4377.4887,6259149.0379,-2.0290,514.9960,0.0000,-0.239,-0.001,0.000,0.000,0.000,0.000,1.39626340160,0.00393980567,-400.0000,1.570796327,0.000000000,0.000000000,0.00000000000,-0.00008048707,-0.00045646484,0.00000000000,0.00000000000,0.00000000000,1111086.7883,4377.4887,6259149.0379,-2.0290,514.9960,0.0000,-0.239,-0.001,0.000,1.39626340160,0.00393980567,-400.0000,2.611
8600,1111086.5842,4428.9883,6259149.0379,-2.0529,514.9959,0.0000,-0.239,-0.001,0.000,0.000,0.000,0.000,1.39626340160,0.00398615632,-400.0000,1.570796327,0.000000000,0.000000000,0.00000000000,-0.00008048707,-0.00045646484,0.00000000000,0.00000000000,0.00000000000,1111086.5842,4428.9883,6259149.0379,-2.0529,514.9959,0.0000,-0.239,-0.001,0.000,1.39626340160,0.00398615632,-400.0000,2.611
8700,1111086.3777,4480.4879,6259149.0379,-2.0767,514.9958,0.0000,-0.239,-0.001,0.000,0.000,0.000,0.000,1.39626340160,0.00403250698,-400.0000,1.570796327,0.000000000,0.000000000,0.00000000000,-0.00008048707,-0.00045646484,0.00000000000,0.00000000000,0.00000000000,1111086.3777,4480.4879,6259149.0379,-2.0767,514.9958,0.0000,-0.239,-0.001,0.000,1.39626340160,0.00403250698,-400.0000,2.611
8800,1111086.1689,4531.9874,6259149.0379,-2.1006,514.9957,0.0000,-0.239,-0.001,0.000,0.000,0.000,0.000,1.39626340160,0.00407885763,-400.0000,1.570796327,0.000000000,0.000000000,0.00000000000,-0.00008048707,-0.00045646484,0.00000000000,0.00000000000,0.00000000000,1111086.1689,4531.9874,6259149.0379,-2.1006,514.9957,0.0000,-0.239,-0.001,0.000,1.39626340160,0.00407885763,-400.0000,2.611
8900,1111085.9576,4583.4870,6259149.0379,-2.1245,514.9956,0.0000,-0.239,-0.001,0.000,0.000,0.000,0.000,1.39626340160,0.00412520829,-400.0000,1.570796327,0.000000000,0.000000000,0.00000000000,-0.00008048707,-0.00045646484,0.00000000000,0.00000000000,0.00000000000,1111085.9576,4583.4870,6259149.0379,-2.1245,514.9956,0.0000,-0.239,-0.001,0.000,1.39626340160,0.00412520829,-400.0000,2.611
9000,1111085.7440,4634.9866,6259149.0379,-2.1483,514.9955,0.0000,-0.239,-0.001,0.000,0.000,0.000,0.000,1.39626340160,0.00417155894,-400.0000,1.570796327,0.000000000,0.000000000,0.00000000000,-0.00008048707,-0.00045646484,0.00000000000,0.00000000000,0.00000000000,1111085.7440,4634.9866,6259149.0379,-2.1483,514.9955,0.0000,-0.239,-0.001,0.000,1.39626340160,0.00417155894,-400.0000,2.611
9100,1111085.5279,4686.4861,6259149.0379,-2.1722,514.9954,0.0000,-0.239,-0.001,0.000,0.000,0.000,0.000,1.39626340160,0.00421790960,-400.0000,1.570796327,0.000000000,0.000000000,0.00000000000,-0.00008048707,-0.00045646484,0.00000000000,0.00000000000,0.00000000000,1111085.5279,4686.4861,6259149.0379,-2.1722,514.9954,0.0000,-0.239,-0.001,0.000,1.39626340160,0.00421790960,-400.0000,2.611
9200,1111085.3095,4737.9856,6259149.0379,-2.1961,514.9953,0.0000,-0.239,-0.001,0.000,0.000,0.000,0.000,1.39626340160,0.00426426025,-400.0000,1.570796327,0.000000000,0.000000000,0.00000000000,-0.00008048707,-0.00045646484,0.00000000000,0.00000000000,0.00000000000,1111085.3095,4737.9856,6259149.0379,-2.1961,514.9953,0.0000,-0.239,-0.001,0.000,1.39626340160,0.00426426025,-400.0000,2.611
9300,1111085.0887,4789.4852,6259149.0379,-2.2200,514.9952,0.0000,-0.239,-0.001,0.000,0.000,0.000,0.000,1.39626340160,0.00431061091,-400.0000,1.570796327,0.000000000,0.000000000,0.00000000000,-0.00008048707,-0.00045646484,0.00000000000,0.00000000000,0.00000000000,1111085.0887,4789.4852,6259149.0379,-2.2200,514.9952,0.0000,-0.239,-0.001,0.000,1.39626340160,0.00431061091,-400.0000,2.611
9400,1111084.8655,4840.9847,6259149.0379,-2.2438,514.9951,0.0000,-0.239,-0.001,0.000,0.000,0.000,0.000,1.39626340160,0.00435696156,-400.0000,1.570796327,0.000000000,0.000000000,0.00000000000,-0.00008048707,-0.00045646484,0.00000000000,0.00000000000,0.00000000000,1111084.8655,4840.9847,6259149.0379,-2.2438,514.9951,0.0000,-0.239,-0.001,0.000,1.39626340160,0.00435696156,-400.0000,2.611
9500,1111084.6400,4892.4842,6259149.0379,-2.2677,514.9950,0.0000,-0.239,-0.001,0.000,0.000,0.000,0.000,1.39626340160,0.00440331222,-400.0000,1.570796327,0.000000000,0.000000000,0.00000000000,-0.00008048707,-0.00045646484,0.00000000000,0.00000000000,0.00000000000,1111084.6400,4892.4842,6259149.0379,-2.2677,514.9950,0.0000,-0.239,-0.001,0.000,1.39626340160,0.00440331222,-400.0000,2.611
9600,1111084.4120,4943.9837,6259149.0379,-2.2916,514.9949,0.0000,-0.239,-0.001,0.000,0.000,0.000,0.000,1.39626340160,0.00444966287,-400.0000,1.570796327,0.000000000,0.000000000,0.00000000000,-0.00008048707,-0.00045646484,0.00000000000,0.00000000000,0.00000000000,1111084.4120,4943.9837,6259149.0379,-2.2916,514.9949,0.0000,-0.239,-0.001,0.000,1.39626340160,0.00444966287,-400.0000,2.611
9700,1111084.1816,4995.4832,6259149.0379,-2.3154,514.9948,0.0000,-0.239,-0.001,0.000,0.000,0.000,0.000,1.39626340160,0.00449601353,-400.0000,1.570796327,0.000000000,0.000000000,0.00000000000,-0.00008048707,-0.00045646484,0.00000000000,0.00000000000,0.00000000000,1111084.1816,4995.4832,6259149.0379,-2.3154,514.9948,0.0000,-0.239,-0.001,0.000,1.39626340160,0.00449601353,-400.0000,2.611
9800,1111083.9489,5046.9826,6259149.0379,-2.3393,514.9947,0.0000,-0.239,-0.001,0.000,0.000,0.000,0.000,1.39626340160,0.00454236418,-400.0000,1.570796327,0.000000000,0.000000000,0.00000000000,-0.00008048707,-0.00045646484,0.00000000000,0.00000000000,0.00000000000,1111083.9489,5046.9826,6259149.0379,-2.3393,514.9947,0.0000,-0.239,-0.001,0.000,1.39626340160,0.00454236418,-400.0000,2.611
9900,1111083.7138,5098.4821,6259149.0379,-2.3632,514.9946,0.0000,-0.239,-0.001,0.000,0.000,0.000,0.000,1.39626340160,0.00458871484,-400.0000,1.570796327,0.000000000,0.000000000,0.00000000000,-0.00008048707,-0.00045646484,0.00000000000,0.00000000000,0.00000000000,1111083.7138,5098.4821,6259149.0379,-2.3632,514.9946,0.0000,-0.239,-0.001,0.000,1.39626340160,0.00458871484,-400.0000,2.611
10000,1111083.4763,5149.9816,6259149.0379,-2.3871,514.9945,0.0000,-0.239,-0.001,0.000,0.000,0.000,0.000,1.39626340160,0.00463506549,-400.0000,1.570796327,0.000000000,0.000000000,0.00000000000,-0.00008048707,-0.00045646484,0.00000000000,0.00000000000,0.00000000000,1111083.4763,5149.9816,6259149.0379,-2.3871,514.9945,0.0000,-0.239,-0.001,0.000,1.39626340160,0.00463506549,-400.0000,2.611
10100,1111083.2364,5201.4810,6259149.0379,-2.4109,514.9944,0.0000,-0.239,-0.001,0.000,0.000,0.000,0.000,1.39626340160,0.00468141615,-400.0000,1.570796327,0.000000000,0.000000000,0.00000000000,-0.00008048707,-0.00045646484,0.00000000000,0.00000000000,0.00000000000,1111083.2364,5201.4810,6259149.0379,-2.4109,514.9944,0.0000,-0.239,-0.001,0.000,1.39626340160,0.00468141615,-400.0000,2.611
10200,1111082.9941,5252.9804,6259149.0379,-2.4348,514.9942,0.0000,-0.239,-0.001,0.000,0.000,0.000,0.000,1.39626340160,0.00472776680,-400.0000,1.570796327,0.000000000,0.000000000,0.00000000000,-0.00008048707,-0.00045646484,0.00000000000,0.00000000000,0.00000000000,1111082.9941,5252.9804,6259149.0379,-2.4348,514.9942,0.0000,-0.239,-0.001,0.000,1.39626340160,0.00472776680,-400.0000,2.611
10300,1111082.7494,5304.4798,6259149.0379,-2.4587,514.9941,0.0000,-0.239,-0.001,0.000,0.000,0.000,0.000,1.39626340160,0.00477411746,-400.0000,1.570796327,0.000000000,0.000000000,0.00000000000,-0.00008048707,-0.00045646484,0.00000000000,0.00000000000,0.00000000000,1111082.7494,5304.4798,6259149.0379,-2.4587,514.9941,0.0000,-0.239,-0.001,0.000,1.39626340160,0.00477411746,-400.0000,2.611
10400,1111082.5024,5355.9793,6259149.0379,-2.4825,514.9940,0.0000,-0.239,-0.001,0.000,0.000,0.000,0.000,1.39626340160,0.00482046811,-400.0000,1.570796327,0.000000000,0.000000000,0.00000000000,-0.00008048707,-0.00045646484,0.00000000000,0.00000000000,0.00000000000,1111082.5024,5355.9793,6259149.0379,-2.4825,514.9940,0.0000,-0.239,-0.001,0.000,1.39626340160,0.00482046811,-400.0000,2.611
10500,1111082.2529,5407.4787,6259149.0379,-2.5064,514.9939,0.0000,-0.239,-0.001,0.000,0.000,0.000,0.000,1.39626340160,0.00486681877,-400.0000,1.570796327,0.000000000,0.000000000,0.00000000000,-0.00008048707,-0.00045646484,0.00000000000,0.00000000000,0.00000000000,1111082.2529,5407.4787,6259149.0379,-2.5064,514.9939,0.0000,-0.239,-0.001,0.000,1.39626340160,0.00486681877,-400.0000,2.611
10600,1111082.0011,5458.9780,6259149.0379,-2.5303,514.9938,0.0000,-0.239,-0.001,0.000,0.000,0.000,0.000,1.39626340160,0.00491316942,-400.0000,1.570796327,0.000000000,0.000000000,0.00000000000,-0.00008048707,-0.00045646484,0.00000000000,0.00000000000,0.00000000000,1111082.0011,5458.9780,6259149.0379,-2.5303,514.9938,0.0000,-0.239,-0.001,0.000,1.39626340160,0.00491316942,-400.0000,2.611
10700,1111081.7468,5510.4774,6259149.0379,-2.5541,514.9937,0.0000,-0.239,-0.001,0.000,0.000,0.000,0.000,1.39626340160,0.00495952008,-400.0000,1.570796327,0.000000000,0.000000000,0.00000000000,-0.00008048707,-0.00045646484,0.00000000000,0.00000000000,0.00000000000,1111081.7468,5510.4774,6259149.0379,-2.5541,514.9937,0.0000,-0.239,-0.001,0.000,1.39626340160,0.00495952008,-400.0000,2.611
10800,1111081.4902,5561.9768,6259149.0379,-2.5780,514.9935,0.0000,-0.239,-0.001,0.000,0.000,0.000,0.000,1.39626340160,0.00500587073,-400.0000,1.570796327,0.000000000,0.000000000,0.00000000000,-0.00008048707,-0.00045646484,0.00000000000,0.00000000000,0.00000000000,1111081.4902,5561.9768,6259149.0379,-2.5780,514.9935,0.0000,-0.239,-0.001,0.000,1.39626340160,0.00500587073,-400.0000,2.611
10900,1111081.2312,5613.4761,6259149.0379,-2.6019,514.9934,0.0000,-0.239,-0.001,0.000,0.000,0.000,0.000,1.39626340160,0.00505222139,-400.0000,1.570796327,0.000000000,0.000000000,0.00000000000,-0.00008048707,-0.00045646484,0.00000000000,0.00000000000,0.00000000000,1111081.2312,5613.4761,6259149.0379,-2.6019,514.9934,0.0000,-0.239,-0.001,0.000,1.39626340160,0.00505222139,-400.0000,2.611
11000,1111080.9699,5664.9755,6259149.0379,-2.6258,514.9933,0.0000,-0.239,-0.001,0.000,0.000,0.000,0.000,1.39626340160,0.00509857204,-400.0000,1.570796327,0.000000000,0.000000000,0.00000000000,-0.00008048707,-0.00045646484,0.00000000000,0.00000000000,0.00000000000,1111080.9699,5664.9755,6259149.0379,-2.6258,514.9933,0.0000,-0.239,-0.001,0.000,1.39626340160,0.00509857204,-400.0000,2.611
11100,1111080.7061,5716.4748,6259149.0379,-2.6496,514.9932,0.0000,-0.239,-0.001,0.000,0.000,0.000,0.000,1.39626340160,0.00514492270,-400.0000,1.570796327,0.000000000,0.000000000,0.00000000000,-0.00008048707,-0.00045646484,0.00000000000,0.00000000000,0.00000000000,1111080.7061,5716.4748,6259149.0379,-2.6496,514.9932,0.0000,-0.239,-0.001,0.000,1.39626340160,0.00514492270,-400.0000,2.611
11200,1111080.4399,5767.9741,6259149.0379,-2.6735,514.9931,0.0000,-0.239,-0.001,0.000,0.000,0.000,0.000,1.39626340160,0.00519127335,-400.0000,1.570796327,0.000000000,0.000000000,0.00000000000,-0.00008048707,-0.00045646484,0.00000000000,0.00000000000,0.00000000000,1111080.4399,5767.9741,6259149.0379,-2.6735,514.9931,0.0000,-0.239,-0.001,0.000,1.39626340160,0.00519127335,-400.0000,2.611
11300,1111080.1714,5819.4734,6259149.0379,-2.6974,514.9929,0.0000,-0.239,-0.001,0.000,0.000,0.000,0.000,1.39626340160,0.00523762401,-400.0000,1.570796327,0.000000000,0.000000000,0.00000000000,-0.00008048707,-0.00045646484,0.00000000000,0.00000000000,0.00000000000,1111080.1714,5819.4734,6259149.0379,-2.6974,514.9929,0.0000,-0.239,-0.001,0.000,1.39626340160,0.00523762401,-400.0000,2.611
11400,1111079.9005,5870.9727,6259149.0379,-2.7212,514.9928,0.0000,-0.239,-0.001,0.000,0.000,0.000,0.000,1.39626340160,0.00528397466,-400.0000,1.570796327,0.000000000,0.000000000,0.00000000000,-0.00008048707,-0.00045646484,0.00000000000,0.00000000000,0.00000000000,1111079.9005,5870.9727,6259149.0379,-2.7212,514.9928,0.0000,-0.239,-0.001,0.000,1.39626340160,0.00528397466,-400.0000,2.611
11500,1111079.6272,5922.4720,6259149.0379,-2.7451,514.9927,0.0000,-0.239,-0.001,0.000,0.000,0.000,0.000,1.39626340160,0.00533032532,-400.0000,1.570796327,0.000000000,0.000000000,0.00000000000,-0.00008048707,-0.00045646484,0.00000000000,0.00000000000,0.00000000000,1111079.6272,5922.4720,6259149.0379,-2.7451,514.9927,0.0000,-0.239,-0.001,0.000,1.39626340160,0.00533032532,-400.0000,2.611
11600,1111079.3514,5973.9712,6259149.0379,-2.7690,514.9926,0.0000,-0.239,-0.001,0.000,0.000,0.000,0.000,1.39626340160,0.00537667597,-400.0000,1.570796327,0.000000000,0.000000000,0.00000000000,-0.00008048707,-0.00045646484,0.00000000000,0.00000000000,0.00000000000,1111079.3514,5973.9712,6259149.0379,-2.7690,514.9926,0.0000,-0.239,-0.001,0.000,1.39626340160,0.00537667597,-400.0000,2.611
11700,1111079.0734,6025.4705,6259149.0379,-2.7928,514.9924,0.0000,-0.239,-0.001,0.000,0.000,0.000,0.000,1.39626340160,0.00542302663,-400.0000,1.570796327,0.000000000,0.000000000,0.00000000000,-0.00008048707,-0.00045646484,0.00000000000,0.00000000000,0.00000000000,1111079.0734,6025.4705,6259149.0379,-2.7928,514.9924,0.0000,-0.239,-0.001,0.000,1.39626340160,0.00542302663,-400.0000,2.611
11800,1111078.7929,6076.9697,6259149.0379,-2.8167,514.9923,0.0000,-0.239,-0.001,0.000,0.000,0.000,0.000,1.39626340160,0.00546937728,-400.0000,1.570796327,0.000000000,0.000000000,0.00000000000,-0.00008048707,-0.00045646484,0.00000000000,0.00000000000,0.00000000000,1111078.7929,6076.9697,6259149.0379,-2.8167,514.9923,0.0000,-0.239,-0.001,0.000,1.39626340160,0.00546937728,-400.0000,2.611
11900,1111078.5100,6128.4689,6259149.0379,-2.8406,514.9922,0.0000,-0.239,-0.001,0.000,0.000,0.000,0.000,1.39626340160,0.00551572794,-400.0000,1.570796327,0.000000000,0.000000000,0.00000000000,-0.00008048707,-0.00045646484,0.00000000000,0.00000000000,0.00000000000,1111078.5100,6128.4689,6259149.0379,-2.8406,514.9922,0.0000,-0.239,-0.001,0.000,1.39626340160,0.00551572794,-400.0000,2.611
12000,1111078.2248,6179.9681,6259149.0379,-2.8645,514.9920,0.0000,-0.239,-0.001,0.000,0.000,0.000,0.000,1.39626340160,0.00556207859,-400.0000,1.570796327,0.000000000,0.000000000,0.00000000000,-0.00008048707,-0.00045646484,0.00000000000,0.00000000000,0.00000000000,1111078.2248,6179.9681,6259149.0379,-2.8645,514.9920,0.0000,-0.239,-0.001,0.000,1.39626340160,0.00556207859,-400.0000,2.614
12100,1111077.9371,6231.4673,6259149.0379,-2.8883,514.9919,0.0000,-0.239,-0.001,0.000,0.000,0.000,0.000,1.39626340160,0.00560842924,-400.0000,1.570796327,0.000000000,0.000000000,0.00000000000,-0.00008048707,-0.00045646484,0.00000000000,0.00000000000,0.00000000000,1111077.9371,6231.4673,6259149.0379,-2.8883,514.9919,0.0000,-0.239,-0.001,0.000,1.39626340160,0.00560842924,-400.0000,2.614
12200,1111077.6471,6282.9665,6259149.0379,-2.9122,514.9918,0.0000,-0.239,-0.001,0.000,0.000,0.000,0.000,1.39626340160,0.00565477990,-400.0000,1.570796327,0.000000000,0.000000000,0.00000000000,-0.00008048707,-0.00045646484,0.00000000000,0.00000000000,0.00000000000,1111077.6471,6282.9665,6259149.0379,-2.9122,514.9918,0.0000,-0.239,-0.001,0.000,1.39626340160,0.00565477990,-400.0000,2.614
12300,1111077.3547,6334.4657,6259149.0379,-2.9361,514.9916,0.0000,-0.239,-0.001,0.000,0.000,0.000,0.000,1.39626340160,0.00570113055,-400.0000,1.570796327,0.000000000,0.000000000,0.00000000000,-0.00008048707,-0.00045646484,0.00000000000,0.00000000000,0.00000000000,1111077.3547,6334.4657,6259149.0379,-2.9361,514.9916,0.0000,-0.239,-0.001,0.000,1.39626340160,0.00570113055,-400.0000,2.614
12400,1111077.0599,6385.9648,6259149.0379,-2.9599,514.9915,0.0000,-0.239,-0.001,0.000,0.000,0.000,0.000,1.39626340160,0.00574748121,-400.0000,1.570796327,0.000000000,0.000000000,0.00000000000,-0.00008048707,-0.00045646484,0.00000000000,0.00000000000,0.00000000000,1111077.0599,6385.9648,6259149.0379,-2.9599,514.9915,0.0000,-0.239,-0.001,0.000,1.39626340160,0.00574748121,-400.0000,2.614
12500,1111076.7627,6437.4640,6259149.0379,-2.9838,514.9914,0.0000,-0.239,-0.001,0.000,0.000,0.000,0.000,1.39626340160,0.00579383186,-400.0000,1.570796327,0.000000000,0.000000000,0.00000000000,-0.00008048707,-0.00045646484,0.00000000000,0.00000000000,0.00000000000,1111076.7627,6437.4640,6259149.0379,-2.9838,514.9914,0.0000,-0.239,-0.001,0.000,1.39626340160,0.00579383186,-400.0000,2.614
12600,1111076.4631,6488.9631,6259149.0379,-3.0077,514.9912,0.0000,-0.239,-0.001,0.000,0.000,0.000,0.000,1.39626340160,0.00584018252,-400.0000,1.570796327,0.000000000,0.000000000,0.00000000000,-0.00008048707,-0.00045646484,0.00000000000,0.00000000000,0.00000000000,1111076.4631,6488.9631,6259149.0379,-3.0077,514.9912,0.0000,-0.239,-0.001,0.000,1.39626340160,0.00584018252,-400.0000,2.614
12700,1111076.1612,6540.4622,6259149.0379,-3.0315,514.9911,0.0000,-0.239,-0.001,0.000,0.000,0.000,0.000,1.39626340160,0.00588653317,-400.0000,1.570796327,0.000000000,0.000000000,0.00000000000,-0.00008048707,-0.00045646484,0.00000000000,0.00000000000,0.00000000000,1111076.1612,6540.4622,6259149.0379,-3.0315,514.9911,0.0000,-0.239,-0.001,0.000,1.39626340160,0.00588653317,-400.0000,2.614
12800,1111075.8568,6591.9613,6259149.0379,-3.0554,514.9909,0.0000,-0.239,-0.001,0.000,0.000,0.000,0.000,1.39626340160,0.00593288383,-400.0000,1.570796327,0.000000000,0.000000000,0.00000000000,-0.00008048707,-0.00045646484,0.00000000000,0.00000000000,0.00000000000,1111075.8568,6591.9613,6259149.0379,-3.0554,514.9909,0.0000,-0.239,-0.001,0.000,1.39626340160,0.00593288383,-400.0000,2.614
12900,1111075.5501,6643.4604,6259149.0379,-3.0793,514.9908,0.0000,-0.239,-0.001,0.000,0.000,0.000,0.000,1.39626340160,0.00597923448,-400.0000,1.570796327,0.000000000,0.000000000,0.00000000000,-0.00008048707,-0.00045646484,0.00000000000,0.00000000000,0.00000000000,1111075.5501,6643.4604,6259149.0379,-3.0793,514.9908,0.0000,-0.239,-0.001,0.000,1.39626340160,0.00597923448,-400.0000,2.614
13000,1111075.2410,6694.9595,6259149.0379,-3.1032,514.9907,0.0000,-0.239,-0.001,0.000,0.000,0.000,0.000,1.39626340160,0.00602558514,-400.0000,1.570796327,0.000000000,0.000000000,0.00000000000,-0.00008048707,-0.00045646484,0.00000000000,0.00000000000,0.00000000000,1111075.2410,6694.9595,6259149.0379,-3.1032,514.9907,0.0000,-0.239,-0.001,0.000,1.39626340160,0.00602558514,-400.0000,2.614
13100,1111074.9294,6746.4585,6259149.0379,-3.1270,514.9905,0.0000,-0.239,-0.001,0.000,0.000,0.000,0.000,1.39626340160,0.00607193579,-400.0000,1.570796327,0.000000000,0.000000000,0.00000000000,-0.00008048707,-0.00045646484,0.00000000000,0.00000000000,0.00000000000,1111074.9294,6746.4585,6259149.0379,-3.1270,514.9905,0.0000,-0.239,-0.001,0.000,1.39626340160,0.00607193579,-400.0000,2.614
13200,1111074.6155,6797.9576,6259149.0379,-3.1509,514.9904,0.0000,-0.239,-0.001,0.000,0.000,0.000,0.000,1.39626340160,0.00611828645,-400.0000,1.570796327,0.000000000,0.000000000,0.00000000000,-0.00008048707,-0.00045646484,0.00000000000,0.00000000000,0.00000000000,1111074.6155,6797.9576,6259149.0379,-3.1509,514.9904,0.0000,-0.239,-0.001,0.000,1.39626340160,0.00611828645,-400.0000,2.614
13300,1111074.2993,6849.4566,6259149.0379,-3.1748,514.9902,0.0000,-0.239,-0.001,0.000,0.000,0.000,0.000,1.39626340160,0.00616463710,-400.0000,1.570796327,0.000000000,0.000000000,0.00000000000,-0.00008048707,-0.00045646484,0.00000000000,0.00000000000,0.00000000000,1111074.2993,6849.4566,6259149.0379,-3.1748,514.9902,0.0000,-0.239,-0.001,0.000,1.39626340160,0.00616463710,-400.0000,2.614
13400,1111073.9806,6900.9556,6259149.0379,-3.1986,514.9901,0.0000,-0.239,-0.001,0.000,0.000,0.000,0.000,1.39626340160,0.00621098776,-400.0000,1.570796327,0.000000000,0.000000000,0.00000000000,-0.00008048707,-0.00045646484,0.00000000000,0.00000000000,0.00000000000,1111073.9806,6900.9556,6259149.0379,-3.1986,514.9901,0.0000,-0.239,-0.001,0.000,1.39626340160,0.00621098776,-400.0000,2.614
13500,1111073.6595,6952.4546,6259149.0379,-3.2225,514.9899,0.0000,-0.239,-0.001,0.000,0.000,0.000,0.000,1.39626340160,0.00625733841,-400.0000,1.570796327,0.000000000,0.000000000,0.00000000000,-0.00008048707,-0.00045646484,0.00000000000,0.00000000000,0.00000000000,1111073.6595,6952.4546,6259149.0379,-3.2225,514.9899,0.0000,-0.239,-0.001,0.000,1.39626340160,0.00625733841,-400.0000,2.614
13600,1111073.3361,7003.9536,6259149.0379,-3.2464,514.9898,0.0000,-0.239,-0.002,0.000,0.000,0.000,0.000,1.39626340160,0.00630368907,-400.0000,1.570796327,0.000000000,0.000000000,0.00000000000,-0.00008048707,-0.00045646484,0.00000000000,0.00000000000,0.00000000000,1111073.3361,7003.9536,6259149.0379,-3.2464,514.9898,0.0000,-0.239,-0.002,0.000,1.39626340160,0.00630368907,-400.0000,2.614
13700,1111073.0103,7055.4526,6259149.0379,-3.2702,514.9896,0.0000,-0.239,-0.002,0.000,0.000,0.000,0.000,1.39626340160,0.00635003972,-400.0000,1.570796327,0.000000000,0.000000000,0.00000000000,-0.00008048707,-0.00045646484,0.00000000000,0.00000000000,0.00000000000,1111073.0103,7055.4526,6259149.0379,-3.2702,514.9896,0.0000,-0.239,-0.002,0.000,1.39626340160,0.00635003972,-400.0000,2.614
13800,1111072.6820,7106.9515,6259149.0379,-3.2941,514.9895,0.0000,-0.239,-0.002,0.000,0.000,0.000,0.000,1.39626340160,0.00639639038,-400.0000,1.570796327,0.000000000,0.000000000,0.00000000000,-0.00008048707,-0.00045646484,0.00000000000,0.00000000000,0.00000000000,1111072.6820,7106.9515,6259149.0379,-3.2941,514.9895,0.0000,-0.239,-0.002,0.000,1.39626340160,0.00639639038,-400.0000,2.614
13900,1111072.3514,7158.4505,6259149.0379,-3.3180,514.9893,0.0000,-0.239,-0.002,0.000,0.000,0.000,0.000,1.39626340160,0.00644274103,-400.0000,1.570796327,0.000000000,0.000000000,0.00000000000,-0.00008048707,-0.00045646484,0.00000000000,0.00000000000,0.00000000000,1111072.3514,7158.4505,6259149.0379,-3.3180,514.9893,0.0000,-0.239,-0.002,0.000,1.39626340160,0.00644274103,-400.0000,2.614
14000,1111072.0184,7209.9494,6259149.0379,-3.3419,514.9892,0.0000,-0.239,-0.002,0.000,0.000,0.000,0.000,1.39626340160,0.00648909169,-400.0000,1.570796327,0.000000000,0.000000000,0.00000000000,-0.00008048707,-0.00045646484,0.00000000000,0.00000000000,0.00000000000,1111072.0184,7209.9494,6259149.0379,-3.3419,514.9892,0.0000,-0.239,-0.002,0.000,1.39626340160,0.00648909169,-400.0000,2.614
14100,1111071.6831,7261.4483,6259149.0379,-3.3657,514.9890,0.0000,-0.239,-0.002,0.000,0.000,0.000,0.000,1.39626340160,0.00653544234,-400.0000,1.570796327,0.000000000,0.000000000,0.00000000000,-0.00008048707,-0.00045646484,0.00000000000,0.00000000000,0.00000000000,1111071.6831,7261.4483,6259149.0379,-3.3657,514.9890,0.0000,-0.239,-0.002,0.000,1.39626340160,0.00653544234,-400.0000,2.614
14200,1111071.3453,7312.9472,6259149.0379,-3.3896,514.9888,0.0000,-0.239,-0.002,0.000,0.000,0.000,0.000,1.39626340160,0.00658179300,-400.0000,1.570796327,0.000000000,0.000000000,0.00000000000,-0.00008048707,-0.00045646484,0.00000000000,0.00000000000,0.00000000000,1111071.3453,7312.9472,6259149.0379,-3.3896,514.9888,0.0000,-0.239,-0.002,0.000,1.39626340160,0.00658179300,-400.0000,2.614
14300,1111071.0051,7364.4461,6259149.0379,-3.4135,514.9887,0.0000,-0.239,-0.002,0.000,0.000,0.000,0.000,1.39626340160,0.00662814365,-400.0000,1.570796327,0.000000000,0.000000000,0.00000000000,-0.00008048707,-0.00045646484,0.00000000000,0.00000000000,0.00000000000,1111071.0051,7364.4461,6259149.0379,-3.4135,514.9887,0.0000,-0.239,-0.002,0.000,1.39626340160,0.00662814365,-400.0000,2.614
14400,1111070.6626,7415.9449,6259149.0379,-3.4373,514.9885,0.0000,-0.239,-0.002,0.000,0.000,0.000,0.000,1.39626340160,0.00667449431,-400.0000,1.570796327,0.000000000,0.000000000,0.00000000000,-0.00008048707,-0.00045646484,0.00000000000,0.00000000000,0.00000000000,1111070.6626,7415.9449,6259149.0379,-3.4373,514.9885,0.0000,-0.239,-0.002,0.000,1.39626340160,0.00667449431,-400.0000,2.614
14500,1111070.3177,7467.4438,6259149.0379,-3.4612,514.9884,0.0000,-0.239,-0.002,0.000,0.000,0.000,0.000,1.39626340160,0.00672084496,-400.0000,1.570796327,0.000000000,0.000000000,0.00000000000,-0.00008048707,-0.00045646484,0.00000000000,0.00000000000,0.00000000000,1111070.3177,7467.4438,6259149.0379,-3.4612,514.9884,0.0000,-0.239,-0.002,0.000,1.39626340160,0.00672084496,-400.0000,2.614
14600,1111069.9704,7518.9426,6259149.0379,-3.4851,514.9882,0.0000,-0.239,-0.002,0.000,0.000,0.000,0.000,1.39626340160,0.00676719562,-400.0000,1.570796327,0.000000000,0.000000000,0.00000000000,-0.00008048707,-0.00045646484,0.00000000000,0.00000000000,0.00000000000,1111069.9704,7518.9426,6259149.0379,-3.4851,514.9882,0.0000,-0.239,-0.002,0.000,1.39626340160,0.00676719562,-400.0000,2.614
14700,1111069.6207,7570.4414,6259149.0379,-3.5089,514.9880,0.0000,-0.239,-0.002,0.000,0.000,0.000,0.000,1.39626340160,0.00681354627,-400.0000,1.570796327,0.000000000,0.000000000,0.00000000000,-0.00008048707,-0.00045646484,0.00000000000,0.00000000000,0.00000000000,1111069.6207,7570.4414,6259149.0379,-3.5089,514.9880,0.0000,-0.239,-0.002,0.000,1.39626340160,0.00681354627,-400.0000,2.614
14800,1111069.2686,7621.9402,6259149.0379,-3.5328,514.9879,0.0000,-0.239,-0.002,0.000,0.000,0.000,0.000,1.39626340160,0.00685989693,-400.0000,1.570796327,0.000000000,0.000000000,0.00000000000,-0.00008048707,-0.00045646484,0.00000000000,0.00000000000,0.00000000000,1111069.2686,7621.9402,6259149.0379,-3.5328,514.9879,0.0000,-0.239,-0.002,0.000,1.39626340160,0.00685989693,-400.0000,2.614
14900,1111068.9141,7673.4390,6259149.0379,-3.5567,514.9877,0.0000,-0.239,-0.002,0.000,0.000,0.000,0.000,1.39626340160,0.00690624758,-400.0000,1.570796327,0.000000000,0.000000000,0.00000000000,-0.00008048707,-0.00045646484,0.00000000000,0.00000000000,0.00000000000,1111068.9141,7673.4390,6259149.0379,-3.5567,514.9877,0.0000,-0.239,-0.002,0.000,1.39626340160,0.00690624758,-400.0000,2.614
15000,1111068.5572,7724.9378,6259149.0379,-3.5806,514.9876,0.0000,-0.239,-0.002,0.000,0.000,0.000,0.000,1.39626340160,0.00695259824,-400.0000,1.570796327,0.000000000,0.000000000,0.00000000000,-0.00008048707,-0.00045646484,0.00000000000,0.00000000000,0.00000000000,1111068.5572,7724.9378,6259149.0379,-3.5806,514.9876,0.0000,-0.239,-0.002,0.000,1.39626340160,0.00695259824,-400.0000,2.614
15100,1111068.1980,7776.4365,6259149.0379,-3.6044,514.9874,0.0000,-0.239,-0.002,0.000,0.000,0.000,0.000,1.39626340160,0.00699894889,-400.0000,1.570796327,0.000000000,0.000000000,0.00000000000,-0.00008048707,-0.00045646484,0.00000000000,0.00000000000,0.00000000000,1111068.1980,7776.4365,6259149.0379,-3.6044,514.9874,0.0000,-0.239,-0.002,0.000,1.39626340160,0.00699894889,-400.0000,2.614
15200,1111067.8364,7827.9352,6259149.0379,-3.6283,514.9872,0.0000,-0.239,-0.002,0.000,0.000,0.000,0.000,1.39626340160,0.00704529955,-400.0000,1.570796327,0.000000000,0.000000000,0.00000000000,-0.00008048707,-0.00045646484,0.00000000000,0.00000000000,0.00000000000,1111067.8364,7827.9352,6259149.0379,-3.6283,514.9872,0.0000,-0.239,-0.002,0.000,1.39626340160,0.00704529955,-400.0000,2.614
15300,1111067.4723,7879.4340,6259149.0379,-3.6522,514.9870,0.0000,-0.239,-0.002,0.000,0.000,0.000,0.000,1.39626340160,0.00709165020,-400.0000,1.570796327,0.000000000,0.000000000,0.00000000000,-0.00008048707,-0.00045646484,0.00000000000,0.00000000000,0.00000000000,1111067.4723,7879.4340,6259149.0379,-3.6522,514.9870,0.0000,-0.239,-0.002,0.000,1.39626340160,0.00709165020,-400.0000,2.614
15400,1111067.1059,7930.9327,6259149.0379,-3.6760,514.9869,0.0000,-0.239,-0.002,0.000,0.000,0.000,0.000,1.39626340160,0.00713800086,-400.0000,1.570796327,0.000000000,0.000000000,0.00000000000,-0.00008048707,-0.00045646484,0.00000000000,0.00000000000,0.00000000000,1111067.1059,7930.9327,6259149.0379,-3.6760,514.9869,0.0000,-0.239,-0.002,0.000,1.39626340160,0.00713800086,-400.0000,2.614
15500,1111066.7371,7982.4313,6259149.0379,-3.6999,514.9867,0.0000,-0.239,-0.002,0.000,0.000,0.000,0.000,1.39626340160,0.00718435151,-400.0000,1.570796327,0.000000000,0.000000000,0.00000000000,-0.00008048707,-0.00045646484,0.00000000000,0.00000000000,0.00000000000,1111066.7371,7982.4313,6259149.0379,-3.6999,514.9867,0.0000,-0.239,-0.002,0.000,1.39626340160,0.00718435151,-400.0000,2.614
15600,1111066.3659,8033.9300,6259149.0379,-3.7238,514.9865,0.0000,-0.239,-0.002,0.000,0.000,0.000,0.000,1.39626340160,0.00723070217,-400.0000,1.570796327,0.000000000,0.000000000,0.00000000000,-0.00008048707,-0.00045646484,0.00000000000,0.00000000000,0.00000000000,1111066.3659,8033.9300,6259149.0379,-3.7238,514.9865,0.0000,-0.239,-0.002,0.000,1.39626340160,0.00723070217,-400.0000,2.614
15700,1111065.9924,8085.4286,6259149.0379,-3.7476,514.9864,0.0000,-0.239,-0.002,0.000,0.000,0.000,0.000,1.39626340160,0.00727705282,-400.0000,1.570796327,0.000000000,0.000000000,0.00000000000,-0.00008048707,-0.00045646484,0.00000000000,0.00000000000,0.00000000000,1111065.9924,8085.4286,6259149.0379,-3.7476,514.9864,0.0000,-0.239,-0.002,0.000,1.39626340160,0.00727705282,-400.0000,2.614
15800,1111065.6164,8136.9273,6259149.0379,-3.7715,514.9862,0.0000,-0.239,-0.002,0.000,0.000,0.000,0.000,1.39626340160,0.00732340348,-400.0000,1.570796327,0.000000000,0.000000000,0.00000000000,-0.00008048707,-0.00045646484,0.00000000000,0.00000000000,0.00000000000,1111065.6164,8136.9273,6259149.0379,-3.7715,514.9862,0.0000,-0.239,-0.002,0.000,1.39626340160,0.00732340348,-400.0000,2.614
15900,1111065.2381,8188.4259,6259149.0379,-3.7954,514.9860,0.0000,-0.239,-0.002,0.000,0.000,0.000,0.000,1.39626340160,0.00736975413,-400.0000,1.570796327,0.000000000,0.000000000,0.00000000000,-0.00008048707,-0.00045646484,0.00000000000,0.00000000000,0.00000000000,1111065.2381,8188.4259,6259149.0379,-3.7954,514.9860,0.0000,-0.239,-0.002,0.000,1.39626340160,0.00736975413,-400.0000,2.614
16000,1111064.8573,8239.9245,6259149.0379,-3.8193,514.9858,0.0000,-0.239,-0.002,0.000,0.000,0.000,0.000,1.39626340160,0.00741610479,-400.0000,1.570796327,0.000000000,0.000000000,0.00000000000,-0.00008048707,-0.00045646484,0.00000000000,0.00000000000,0.00000000000,1111064.8573,8239.9245,6259149.0379,-3.8193,514.9858,0.0000,-0.239,-0.002,0.000,1.39626340160,0.00741610479,-400.0000,2.614
16100,1111064.4742,8291.4230,6259149.0379,-3.8431,514.9857,0.0000,-0.239,-0.002,0.000,0.000,0.000,0.000,1.39626340160,0.00746245544,-400.0000,1.570796327,0.000000000,0.000000000,0.00000000000,-0.00008048707,-0.00045646484,0.00000000000,0.00000000000,0.00000000000,1111064.4742,8291.4230,6259149.0379,-3.8431,514.9857,0.0000,-0.239,-0.002,0.000,1.39626340160,0.00746245544,-400.0000,2.614
16200,1111064.0887,8342.9216,6259149.0379,-3.8670,514.9855,0.0000,-0.239,-0.002,0.000,0.000,0.000,0.000,1.39626340160,0.00750880610,-400.0000,1.570796327,0.000000000,0.000000000,0.00000000000,-0.00008048707,-0.00045646484,0.00000000000,0.00000000000,0.00000000000,1111064.0887,8342.9216,6259149.0379,-3.8670,514.9855,0.0000,-0.239,-0.002,0.000,1.39626340160,0.00750880610,-400.0000,2.614
16300,1111063.7008,8394.4201,6259149.0379,-3.8909,514.9853,0.0000,-0.239,-0.002,0.000,0.000,0.000,0.000,1.39626340160,0.00755515675,-400.0000,1.570796327,0.000000000,0.000000000,0.00000000000,-0.00008048707,-0.00045646484,0.00000000000,0.00000000000,0.00000000000,1111063.7008,8394.4201,6259149.0379,-3.8909,514.9853,0.0000,-0.239,-0.002,0.000,1.39626340160,0.00755515675,-400.0000,2.614
16400,1111063.3105,8445.9187,6259149.0379,-3.9147,514.9851,0.0000,-0.239,-0.002,0.000,0.000,0.000,0.000,1.39626340160,0.00760150741,-400.0000,1.570796327,0.000000000,0.000000000,0.00000000000,-0.00008048707,-0.00045646484,0.00000000000,0.00000000000,0.00000000000,1111063.3105,8445.9187,6259149.0379,-3.9147,514.9851,0.0000,-0.239,-0.002,0.000,1.39626340160,0.00760150741,-400.0000,2.614
16500,1111062.9179,8497.4172,6259149.0379,-3.9386,514.9849,0.0000,-0.239,-0.002,0.000,0.000,0.000,0.000,1.39626340160,0.00764785806,-400.0000,1.570796327,0.000000000,0.000000000,0.00000000000,-0.00008048707,-0.00045646484,0.00000000000,0.00000000000,0.00000000000,1111062.9179,8497.4172,6259149.0379,-3.9386,514.9849,0.0000,-0.239,-0.002,0.000,1.39626340160,0.00764785806,-400.0000,2.614
16600,1111062.5228,8548.9156,6259149.0379,-3.9625,514.9848,0.0000,-0.239,-0.002,0.000,0.000,0.000,0.000,1.39626340160,0.00769420872,-400.0000,1.570796327,0.000000000,0.000000000,0.00000000000,-0.00008048707,-0.00045646484,0.00000000000,0.00000000000,0.00000000000,1111062.5228,8548.9156,6259149.0379,-3.9625,514.9848,0.0000,-0.239,-0.002,0.000,1.39626340160,0.00769420872,-400.0000,2.614
16700,1111062.1254,8600.4141,6259149.0379,-3.9863,514.9846,0.0000,-0.239,-0.002,0.000,0.000,0.000,0.000,1.39626340160,0.00774055937,-400.0000,1.570796327,0.000000000,0.000000000,0.00000000000,-0.00008048707,-0.00045646484,0.00000000000,0.00000000000,0.00000000000,1111062.1254,8600.4141,6259149.0379,-3.9863,514.9846,0.0000,-0.239,-0.002,0.000,1.39626340160,0.00774055937,-400.0000,2.614
16800,1111061.7255,8651.9126,6259149.0379,-4.0102,514.9844,0.0000,-0.239,-0.002,0.000,0.000,0.000,0.000,1.39626340160,0.00778691003,-400.0000,1.570796327,0.000000000,0.000000000,0.00000000000,-0.00008048707,-0.00045646484,0.00000000000,0.00000000000,0.00000000000,1111061.7255,8651.9126,6259149.0379,-4.0102,514.9844,0.0000,-0.239,-0.002,0.000,1.39626340160,0.00778691003,-400.0000,2.614
16900,1111061.3233,8703.4110,6259149.0379,-4.0341,514.9842,0.0000,-0.239,-0.002,0.000,0.000,0.000,0.000,1.39626340160,0.00783326068,-400.0000,1.570796327,0.000000000,0.000000000,0.00000000000,-0.00008048707,-0.00045646484,0.00000000000,0.00000000000,0.00000000000,1111061.3233,8703.4110,6259149.0379,-4.0341,514.9842,0.0000,-0.239,-0.002,0.000,1.39626340160,0.00783326068,-400.0000,2.614
17000,1111060.9187,8754.9094,6259149.0379,-4.0580,514.9840,0.0000,-0.239,-0.002,0.000,0.000,0.000,0.000,1.39626340160,0.00787961134,-400.0000,1.570796327,0.000000000,0.000000000,0.00000000000,-0.00008048707,-0.00045646484,0.00000000000,0.00000000000,0.00000000000,1111060.9187,8754.9094,6259149.0379,-4.0580,514.9840,0.0000,-0.239,-0.002,0.000,1.39626340160,0.00787961134,-400.0000,2.614
17100,1111060.5117,8806.4078,6259149.0379,-4.0818,514.9838,0.0000,-0.239,-0.002,0.000,0.000,0.000,0.000,1.39626340160,0.00792596199,-400.0000,1.570796327,0.000000000,0.000000000,0.00000000000,-0.00008048707,-0.00045646484,0.00000000000,0.00000000000,0.00000000000,1111060.5117,8806.4078,6259149.0379,-4.0818,514.9838,0.0000,-0.239,-0.002,0.000,1.39626340160,0.00792596199,-400.0000,2.614
17200,1111060.1024,8857.9062,6259149.0379,-4.1057,514.9836,0.0000,-0.239,-0.002,0.000,0.000,0.000,0.000,1.39626340160,0.00797231265,-400.0000,1.570796327,0.000000000,0.000000000,0.00000000000,-0.00008048707,-0.00045646484,0.00000000000,0.00000000000,0.00000000000,1111060.1024,8857.9062,6259149.0379,-4.1057,514.9836,0.0000,-0.239,-0.002,0.000,1.39626340160,0.00797231265,-400.0000,2.614
17300,1111059.6906,8909.4045,6259149.0379,-4.1296,514.9834,0.0000,-0.239,-0.002,0.000,0.000,0.000,0.000,1.39626340160,0.00801866330,-400.0000,1.570796327,0.000000000,0.000000000,0.00000000000,-0.00008048707,-0.00045646484,0.00000000000,0.00000000000,0.00000000000,1111059.6906,8909.4045,6259149.0379,-4.1296,514.9834,0.0000,-0.239,-0.002,0.000,1.39626340160,0.00801866330,-400.0000,2.614
17400,1111059.2764,8960.9029,6259149.0379,-4.1534,514.9833,0.0000,-0.239,-0.002,0.000,0.000,0.000,0.000,1.39626340160,0.00806501396,-400.0000,1.570796327,0.000000000,0.000000000,0.00000000000,-0.00008048707,-0.00045646484,0.00000000000,0.00000000000,0.00000000000,1111059.2764,8960.9029,6259149.0379,-4.1534,514.9833,0.0000,-0.239,-0.002,0.000,1.39626340160,0.00806501396,-400.0000,2.614
17500,1111058.8599,9012.4012,6259149.0379,-4.1773,514.9831,0.0000,-0.239,-0.002,0.000,0.000,0.000,0.000,1.39626340160,0.00811136461,-400.0000,1.570796327,0.000000000,0.000000000,0.00000000000,-0.00008048707,-0.00045646484,0.00000000000,0.00000000000,0.00000000000,1111058.8599,9012.4012,6259149.0379,-4.1773,514.9831,0.0000,-0.239,-0.002,0.000,1.39626340160,0.00811136461,-400.0000,2.614
17600,1111058.4410,9063.8995,6259149.0379,-4.2012,514.9829,0.0000,-0.239,-0.002,0.000,0.000,0.000,0.000,1.39626340160,0.00815771527,-400.0000,1.570796327,0.000000000,0.000000000,0.00000000000,-0.00008048707,-0.00045646484,0.00000000000,0.00000000000,0.00000000000,1111058.4410,9063.8995,6259149.0379,-4.2012,514.9829,0.0000,-0.239,-0.002,0.000,1.39626340160,0.00815771527,-400.0000,2.614
17700,1111058.0197,9115.3977,6259149.0379,-4.2250,514.9827,0.0000,-0.239,-0.002,0.000,0.000,0.000,0.000,1.39626340160,0.00820406592,-400.0000,1.570796327,0.000000000,0.000000000,0.00000000000,-0.00008048707,-0.00045646484,0.00000000000,0.00000000000,0.00000000000,1111058.0197,9115.3977,6259149.0379,-4.2250,514.9827,0.0000,-0.239,-0.002,0.000,1.39626340160,0.00820406592,-400.0000,2.614
17800,1111057.5960,9166.8960,6259149.0379,-4.2489,514.9825,0.0000,-0.239,-0.002,0.000,0.000,0.000,0.000,1.39626340160,0.00825041658,-400.0000,1.570796327,0.000000000,0.000000000,0.00000000000,-0.00008048707,-0.00045646484,0.00000000000,0.00000000000,0.00000000000,1111057.5960,9166.8960,6259149.0379,-4.2489,514.9825,0.0000,-0.239,-0.002,0.000,1.39626340160,0.00825041658,-400.0000,2.614
17900,1111057.1699,9218.3942,6259149.0379,-4.2728,514.9823,0.0000,-0.239,-0.002,0.000,0.000,0.000,0.000,1.39626340160,0.00829676723,-400.0000,1.570796327,0.000000000,0.000000000,0.00000000000,-0.00008048707,-0.00045646484,0.00000000000,0.00000000000,0.00000000000,1111057.1699,9218.3942,6259149.0379,-4.2728,514.9823,0.0000,-0.239,-0.002,0.000,1.39626340160,0.00829676723,-400.0000,2.614
18000,1111056.7414,9269.8925,6259149.0379,-4.2967,514.9821,0.0000,-0.239,-0.002,0.000,0.000,0.000,0.000,1.39626340160,0.00834311789,-400.0000,1.570796327,0.000000000,0.000000000,0.00000000000,-0.00008048707,-0.00045646484,0.00000000000,0.00000000000,0.00000000000,1111056.7414,9269.8925,6259149.0379,-4.2967,514.9821,0.0000,-0.239,-0.002,0.000,1.39626340160,0.00834311789,-400.0000,2.617
18100,1111056.3106,9321.3907,6259149.0379,-4.3205,514.9819,0.0000,-0.239,-0.002,0.000,0.000,0.000,0.000,1.39626340160,0.00838946854,-400.0000,1.570796327,0.000000000,0.000000000,0.00000000000,-0.00008048707,-0.00045646484,0.00000000000,0.00000000000,0.00000000000,1111056.3106,9321.3907,6259149.0379,-4.3205,514.9819,0.0000,-0.239,-0.002,0.000,1.39626340160,0.00838946854,-400.0000,2.617
18200,1111055.8773,9372.8888,6259149.0379,-4.3444,514.9817,0.0000,-0.239,-0.002,0.000,0.000,0.000,0.000,1.39626340160,0.00843581919,-400.0000,1.570796327,0.000000000,0.000000000,0.00000000000,-0.00008048707,-0.00045646484,0.00000000000,0.00000000000,0.00000000000,1111055.8773,9372.8888,6259149.0379,-4.3444,514.9817,0.0000,-0.239,-0.002,0.000,1.39626340160,0.00843581919,-400.0000,2.617
18300,1111055.4417,9424.3870,6259149.0379,-4.3683,514.9815,0.0000,-0.239,-0.002,0.000,0.000,0.000,0.000,1.39626340160,0.00848216985,-400.0000,1.570796327,0.000000000,0.000000000,0.00000000000,-0.00008048707,-0.00045646484,0.00000000000,0.00000000000,0.00000000000,1111055.4417,9424.3870,6259149.0379,-4.3683,514.9815,0.0000,-0.239,-0.002,0.000,1.39626340160,0.00848216985,-400.0000,2.617
18400,1111055.0037,9475.8851,6259149.0379,-4.3921,514.9813,0.0000,-0.239,-0.002,0.000,0.000,0.000,0.000,1.39626340160,0.00852852050,-400.0000,1.570796327,0.000000000,0.000000000,0.00000000000,-0.00008048707,-0.00045646484,0.00000000000,0.00000000000,0.00000000000,1111055.0037,9475.8851,6259149.0379,-4.3921,514.9813,0.0000,-0.239,-0.002,0.000,1.39626340160,0.00852852050,-400.0000,2.617
18500,1111054.5632,9527.3832,6259149.0379,-4.4160,514.9811,0.0000,-0.239,-0.002,0.000,0.000,0.000,0.000,1.39626340160,0.00857487116,-400.0000,1.570796327,0.000000000,0.000000000,0.00000000000,-0.00008048707,-0.00045646484,0.00000000000,0.00000000000,0.00000000000,1111054.5632,9527.3832,6259149.0379,-4.4160,514.9811,0.0000,-0.239,-0.002,0.000,1.39626340160,0.00857487116,-400.0000,2.617
18600,1111054.1205,9578.8813,6259149.0379,-4.4399,514.9809,0.0000,-0.239,-0.002,0.000,0.000,0.000,0.000,1.39626340160,0.00862122181,-400.0000,1.570796327,0.000000000,0.000000000,0.00000000000,-0.00008048707,-0.00045646484,0.00000000000,0.00000000000,0.00000000000,1111054.1205,9578.8813,6259149.0379,-4.4399,514.9809,0.0000,-0.239,-0.002,0.000,1.39626340160,0.00862122181,-400.0000,2.617
18700,1111053.6753,9630.3794,6259149.0379,-4.4637,514.9807,0.0000,-0.239,-0.002,0.000,0.000,0.000,0.000,1.39626340160,0.00866757247,-400.0000,1.570796327,0.000000000,0.000000000,0.00000000000,-0.00008048707,-0.00045646484,0.00000000000,0.00000000000,0.00000000000,1111053.6753,9630.3794,6259149.0379,-4.4637,514.9807,0.0000,-0.239,-0.002,0.000,1.39626340160,0.00866757247,-400.0000,2.617
18800,1111053.2277,9681.8775,6259149.0379,-4.4876,514.9804,0.0000,-0.239,-0.002,0.000,0.000,0.000,0.000,1.39626340160,0.00871392312,-400.0000,1.570796327,0.000000000,0.000000000,0.00000000000,-0.00008048707,-0.00045646484,0.00000000000,0.00000000000,0.00000000000,1111053.2277,9681.8775,6259149.0379,-4.4876,514.9804,0.0000,-0.239,-0.002,0.000,1.39626340160,0.00871392312,-400.0000,2.617
18900,1111052.7777,9733.3755,6259149.0379,-4.5115,514.9802,0.0000,-0.239,-0.002,0.000,0.000,0.000,0.000,1.39626340160,0.00876027378,-400.0000,1.570796327,0.000000000,0.000000000,0.00000000000,-0.00008048707,-0.00045646484,0.00000000000,0.00000000000,0.00000000000,1111052.7777,9733.3755,6259149.0379,-4.5115,514.9802,0.0000,-0.239,-0.002,0.000,1.39626340160,0.00876027378,-400.0000,2.617
19000,1111052.3254,9784.8735,6259149.0379,-4.5354,514.9800,0.0000,-0.239,-0.002,0.000,0.000,0.000,0.000,1.39626340160,0.00880662443,-400.0000,1.570796327,0.000000000,0.000000000,0.00000000000,-0.00008048707,-0.00045646484,0.00000000000,0.00000000000,0.00000000000,1111052.3254,9784.8735,6259149.0379,-4.5354,514.9800,0.0000,-0.239,-0.002,0.000,1.39626340160,0.00880662443,-400.0000,2.617
19100,1111051.8707,9836.3715,6259149.0379,-4.5592,514.9798,0.0000,-0.239,-0.002,0.000,0.000,0.000,0.000,1.39626340160,0.00885297509,-400.0000,1.570796327,0.000000000,0.000000000,0.00000000000,-0.00008048707,-0.00045646484,0.00000000000,0.00000000000,0.00000000000,1111051.8707,9836.3715,6259149.0379,-4.5592,514.9798,0.0000,-0.239,-0.002,0.000,1.39626340160,0.00885297509,-400.0000,2.617
19200,1111051.4136,9887.8695,6259149.0379,-4.5831,514.9796,0.0000,-0.239,-0.002,0.000,0.000,0.000,0.000,1.39626340160,0.00889932574,-400.0000,1.570796327,0.000000000,0.000000000,0.00000000000,-0.00008048707,-0.00045646484,0.00000000000,0.00000000000,0.00000000000,1111051.4136,9887.8695,6259149.0379,-4.5831,514.9796,0.0000,-0.239,-0.002,0.000,1.39626340160,0.00889932574,-400.0000,2.617
19300,1111050.9541,9939.3674,6259149.0379,-4.6070,514.9794,0.0000,-0.239,-0.002,0.000,0.000,0.000,0.000,1.39626340160,0.00894567640,-400.0000,1.570796327,0.000000000,0.000000000,0.00000000000,-0.00008048707,-0.00045646484,0.00000000000,0.00000000000,0.00000000000,1111050.9541,9939.3674,6259149.0379,-4.6070,514.9794,0.0000,-0.239,-0.002,0.000,1.39626340160,0.00894567640,-400.0000,2.617
19400,1111050.4922,9990.8654,6259149.0379,-4.6308,514.9792,0.0000,-0.239,-0.002,0.000,0.000,0.000,0.000,1.39626340160,0.00899202705,-400.0000,1.570796327,0.000000000,0.000000000,0.00000000000,-0.00008048707,-0.00045646484,0.00000000000,0.00000000000,0.00000000000,1111050.4922,9990.8654,6259149.0379,-4.6308,514.9792,0.0000,-0.239,-0.002,0.000,1.39626340160,0.00899202705,-400.0000,2.617
19500,1111050.0279,10042.3633,6259149.0379,-4.6547,514.9790,0.0000,-0.239,-0.002,0.000,0.000,0.000,0.000,1.39626340160,0.00903837771,-400.0000,1.570796327,0.000000000,0.000000000,0.00000000000,-0.00008048707,-0.00045646484,0.00000000000,0.00000000000,0.00000000000,1111050.0279,10042.3633,6259149.0379,-4.6547,514.9790,0.0000,-0.239,-0.002,0.000,1.39626340160,0.00903837771,-400.0000,2.617
19600,1111049.5612,10093.8612,6259149.0379,-4.6786,514.9787,0.0000,-0.239,-0.002,0.000,0.000,0.000,0.000,1.39626340160,0.00908472836,-400.0000,1.570796327,0.000000000,0.000000000,0.00000000000,-0.00008048707,-0.00045646484,0.00000000000,0.00000000000,0.00000000000,1111049.5612,10093.8612,6259149.0379,-4.6786,514.9787,0.0000,-0.239,-0.002,0.000,1.39626340160,0.00908472836,-400.0000,2.617
19700,1111049.0922,10145.3590,6259149.0379,-4.7024,514.9785,0.0000,-0.239,-0.002,0.000,0.000,0.000,0.000,1.39626340160,0.00913107902,-400.0000,1.570796327,0.000000000,0.000000000,0.00000000000,-0.00008048707,-0.00045646484,0.00000000000,0.00000000000,0.00000000000,1111049.0922,10145.3590,6259149.0379,-4.7024,514.9785,0.0000,-0.239,-0.002,0.000,1.39626340160,0.00913107902,-400.0000,2.617
19800,1111048.6207,10196.8569,6259149.0379,-4.7263,514.9783,0.0000,-0.239,-0.002,0.000,0.000,0.000,0.000,1.39626340160,0.00917742967,-400.0000,1.570796327,0.000000000,0.000000000,0.00000000000,-0.00008048707,-0.00045646484,0.00000000000,0.00000000000,0.00000000000,1111048.6207,10196.8569,6259149.0379,-4.7263,514.9783,0.0000,-0.239,-0.002,0.000,1.39626340160,0.00917742967,-400.0000,2.617
19900,1111048.1469,10248.3547,6259149.0379,-4.7502,514.9781,0.0000,-0.239,-0.002,0.000,0.000,0.000,0.000,1.39626340160,0.00922378033,-400.0000,1.570796327,0.000000000,0.000000000,0.00000000000,-0.00008048707,-0.00045646484,0.00000000000,0.00000000000,0.00000000000,1111048.1469,10248.3547,6259149.0379,-4.7502,514.9781,0.0000,-0.239,-0.002,0.000,1.39626340160,0.00922378033,-400.0000,2.617
20000,1111047.6707,10299.8525,6259149.0379,-4.7740,514.9779,0.0000,-0.239,-0.002,0.000,0.000,0.000,0.000,1.39626340160,0.00927013098,-400.0000,1.570796327,0.000000000,0.000000000,0.00000000000,-0.00008048707,-0.00045646484,0.00000000000,0.00000000000,0.00000000000,1111047.6707,10299.8525,6259149.0379,-4.7740,514.9779,0.0000,-0.239,-0.002,0.000,1.39626340160,0.00927013098,-400.0000,2.617
20100,1111047.1921,10351.3503,6259149.0379,-4.7979,514.9776,0.0000,-0.239,-0.002,0.000,0.000,0.000,0.000,1.39626340160,0.00931648164,-400.0000,1.570796327,0.000000000,0.000000000,0.00000000000,-0.00008048707,-0.00045646484,0.00000000000,0.00000000000,0.00000000000,1111047.1921,10351.3503,6259149.0379,-4.7979,514.9776,0.0000,-0.239,-0.002,0.000,1.39626340160,0.00931648164,-400.0000,2.617
20200,1111046.7111,10402.8480,6259149.0379,-4.8218,514.9774,0.0000,-0.239,-0.002,0.000,0.000,0.000,0.000,1.39626340160,0.00936283229,-400.0000,1.570796327,0.000000000,0.000000000,0.00000000000,-0.00008048707,-0.00045646484,0.00000000000,0.00000000000,0.00000000000,1111046.7111,10402.8480,6259149.0379,-4.8218,514.9774,0.0000,-0.239,-0.002,0.000,1.39626340160,0.00936283229,-400.0000,2.617
20300,1111046.2278,10454.3457,6259149.0379,-4.8457,514.9772,0.0000,-0.239,-0.002,0.000,0.000,0.000,0.000,1.39626340160,0.00940918295,-400.0000,1.570796327,0.000000000,0.000000000,0.00000000000,-0.00008048707,-0.00045646484,0.00000000000,0.00000000000,0.00000000000,1111046.2278,10454.3457,6259149.0379,-4.8457,514.9772,0.0000,-0.239,-0.002,0.000,1.39626340160,0.00940918295,-400.0000,2.617
20400,1111045.7420,10505.8434,6259149.0379,-4.8695,514.9770,0.0000,-0.239,-0.002,0.000,0.000,0.000,0.000,1.39626340160,0.00945553360,-400.0000,1.570796327,0.000000000,0.000000000,0.00000000000,-0.00008048707,-0.00045646484,0.00000000000,0.00000000000,0.00000000000,1111045.7420,10505.8434,6259149.0379,-4.8695,514.9770,0.0000,-0.239,-0.002,0.000,1.39626340160,0.00945553360,-400.0000,2.617
20500,1111045.2538,10557.3411,6259149.0379,-4.8934,514.9768,0.0000,-0.239,-0.002,0.000,0.000,0.000,0.000,1.39626340160,0.00950188426,-400.0000,1.570796327,0.000000000,0.000000000,0.00000000000,-0.00008048707,-0.00045646484,0.00000000000,0.00000000000,0.00000000000,1111045.2538,10557.3411,6259149.0379,-4.8934,514.9768,0.0000,-0.239,-0.002,0.000,1.39626340160,0.00950188426,-400.0000,2.617
20600,1111044.7633,10608.8388,6259149.0379,-4.9173,514.9765,0.0000,-0.239,-0.002,0.000,0.000,0.000,0.000,1.39626340160,0.00954823491,-400.0000,1.570796327,0.000000000,0.000000000,0.00000000000,-0.00008048707,-0.00045646484,0.00000000000,0.00000000000,0.00000000000,1111044.7633,10608.8388,6259149.0379,-4.9173,514.9765,0.0000,-0.239,-0.002,0.000,1.39626340160,0.00954823491,-400.0000,2.617
20700,1111044.2704,10660.3364,6259149.0379,-4.9411,514.9763,0.0000,-0.239,-0.002,0.000,0.000,0.000,0.000,1.39626340160,0.00959458557,-400.0000,1.570796327,0.000000000,0.000000000,0.00000000000,-0.00008048707,-0.00045646484,0.00000000000,0.00000000000,0.00000000000,1111044.2704,10660.3364,6259149.0379,-4.9411,514.9763,0.0000,-0.239,-0.002,0.000,1.39626340160,0.00959458557,-400.0000,2.617
20800,1111043.7751,10711.8341,6259149.0379,-4.9650,514.9761,0.0000,-0.239,-0.002,0.000,0.000,0.000,0.000,1.39626340160,0.00964093622,-400.0000,1.570796327,0.000000000,0.000000000,0.00000000000,-0.00008048707,-0.00045646484,0.00000000000,0.00000000000,0.00000000000,1111043.7751,10711.8341,6259149.0379,-4.9650,514.9761,0.0000,-0.239,-0.002,0.000,1.39626340160,0.00964093622,-400.0000,2.617
20900,1111043.2774,10763.3317,6259149.0379,-4.9889,514.9758,0.0000,-0.239,-0.002,0.000,0.000,0.000,0.000,1.39626340160,0.00968728688,-400.0000,1.570796327,0.000000000,0.000000000,0.00000000000,-0.00008048707,-0.00045646484,0.00000000000,0.00000000000,0.00000000000,1111043.2774,10763.3317,6259149.0379,-4.9889,514.9758,0.0000,-0.239,-0.002,0.000,1.39626340160,0.00968728688,-400.0000,2.617
21000,1111042.7773,10814.8292,6259149.0379,-5.0127,514.9756,0.0000,-0.239,-0.002,0.000,0.000,0.000,0.000,1.39626340160,0.00973363753,-400.0000,1.570796327,0.000000000,0.000000000,0.00000000000,-0.00008048707,-0.00045646484,0.00000000000,0.00000000000,0.00000000000,1111042.7773,10814.8292,6259149.0379,-5.0127,514.9756,0.0000,-0.239,-0.002,0.000,1.39626340160,0.00973363753,-400.0000,2.617
21100,1111042.2748,10866.3268,6259149.0379,-5.0366,514.9754,0.0000,-0.239,-0.002,0.000,0.000,0.000,0.000,1.39626340160,0.00977998819,-400.0000,1.570796327,0.000000000,0.000000000,0.00000000000,-0.00008048707,-0.00045646484,0.00000000000,0.00000000000,0.00000000000,1111042.2748,10866.3268,6259149.0379,-5.0366,514.9754,0.0000,-0.239,-0.002,0.000,1.39626340160,0.00977998819,-400.0000,2.617
21200,1111041.7700,10917.8243,6259149.0379,-5.0605,514.9751,0.0000,-0.239,-0.002,0.000,0.000,0.000,0.000,1.39626340160,0.00982633884,-400.0000,1.570796327,0.000000000,0.000000000,0.00000000000,-0.00008048707,-0.00045646484,0.00000000000,0.00000000000,0.00000000000,1111041.7700,10917.8243,6259149.0379,-5.0605,514.9751,0.0000,-0.239,-0.002,0.000,1.39626340160,0.00982633884,-400.0000,2.617
21300,1111041.2627,10969.3218,6259149.0379,-5.0844,514.9749,0.0000,-0.239,-0.002,0.000,0.000,0.000,0.000,1.39626340160,0.00987268950,-400.0000,1.570796327,0.000000000,0.000000000,0.00000000000,-0.00008048707,-0.00045646484,0.00000000000,0.00000000000,0.00000000000,1111041.2627,10969.3218,6259149.0379,-5.0844,514.9749,0.0000,-0.239,-0.002,0.000,1.39626340160,0.00987268950,-400.0000,2.617
21400,1111040.7531,11020.8193,6259149.0379,-5.1082,514.9747,0.0000,-0.239,-0.002,0.000,0.000,0.000,0.000,1.39626340160,0.00991904015,-400.0000,1.570796327,0.000000000,0.000000000,0.00000000000,-0.00008048707,-0.00045646484,0.00000000000,0.00000000000,0.00000000000,1111040.7531,11020.8193,6259149.0379,-5.1082,514.9747,0.0000,-0.239,-0.002,0.000,1.39626340160,0.00991904015,-400.0000,2.617
21500,1111040.2411,11072.3167,6259149.0379,-5.1321,514.9744,0.0000,-0.239,-0.002,0.000,0.000,0.000,0.000,1.39626340160,0.00996539081,-400.0000,1.570796327,0.000000000,0.000000000,0.00000000000,-0.00008048707,-0.00045646484,0.00000000000,0.00000000000,0.00000000000,1111040.2411,11072.3167,6259149.0379,-5.1321,514.9744,0.0000,-0.239,-0.002,0.000,1.39626340160,0.00996539081,-400.0000,2.617
21600,1111039.7267,11123.8142,6259149.0379,-5.1560,514.9742,0.0000,-0.239,-0.002,0.000,0.000,0.000,0.000,1.39626340160,0.01001174146,-400.0000,1.570796327,0.000000000,0.000000000,0.00000000000,-0.00008048707,-0.00045646484,0.00000000000,0.00000000000,0.00000000000,1111039.7267,11123.8142,6259149.0379,-5.1560,514.9742,0.0000,-0.239,-0.002,0.000,1.39626340160,0.01001174146,-400.0000,2.617
21700,1111039.2099,11175.3116,6259149.0379,-5.1798,514.9740,0.0000,-0.239,-0.002,0.000,0.000,0.000,0.000,1.39626340160,0.01005809212,-400.0000,1.570796327,0.000000000,0.000000000,0.00000000000,-0.00008048707,-0.00045646484,0.00000000000,0.00000000000,0.00000000000,1111039.2099,11175.3116,6259149.0379,-5.1798,514.9740,0.0000,-0.239,-0.002,0.000,1.39626340160,0.01005809212,-400.0000,2.617
21800,1111038.6907,11226.8090,6259149.0379,-5.2037,514.9737,0.0000,-0.239,-0.002,0.000,0.000,0.000,0.000,1.39626340160,0.01010444277,-400.0000,1.570796327,0.000000000,0.000000000,0.00000000000,-0.00008048707,-0.00045646484,0.00000000000,0.00000000000,0.00000000000,1111038.6907,11226.8090,6259149.0379,-5.2037,514.9737,0.0000,-0.239,-0.002,0.000,1.39626340160,0.01010444277,-400.0000,2.617
21900,1111038.1692,11278.3063,6259149.0379,-5.2276,514.9735,0.0000,-0.239,-0.002,0.000,0.000,0.000,0.000,1.39626340160,0.01015079343,-400.0000,1.570796327,0.000000000,0.000000000,0.00000000000,-0.00008048707,-0.00045646484,0.00000000000,0.00000000000,0.00000000000,1111038.1692,11278.3063,6259149.0379,-5.2276,514.9735,0.0000,-0.239,-0.002,0.000,1.39626340160,0.01015079343,-400.0000,2.617
22000,1111037.6452,11329.8036,6259149.0379,-5.2514,514.9732,0.0000,-0.239,-0.002,0.000,0.000,0.000,0.000,1.39626340160,0.01019714408,-400.0000,1.570796327,0.000000000,0.000000000,0.00000000000,-0.00008048707,-0.00045646484,0.00000000000,0.00000000000,0.00000000000,1111037.6452,11329.8036,6259149.0379,-5.2514,514.9732,0.0000,-0.239,-0.002,0.000,1.39626340160,0.01019714408,-400.0000,2.617
22100,1111037.1189,11381.3010,6259149.0379,-5.2753,514.9730,0.0000,-0.239,-0.002,0.000,0.000,0.000,0.000,1.39626340160,0.01024349474,-400.0000,1.570796327,0.000000000,0.000000000,0.00000000000,-0.00008048707,-0.00045646484,0.00000000000,0.00000000000,0.00000000000,1111037.1189,11381.3010,6259149.0379,-5.2753,514.9730,0.0000,-0.239,-0.002,0.000,1.39626340160,0.01024349474,-400.0000,2.617
22200,1111036.5902,11432.7982,6259149.0379,-5.2992,514.9727,0.0000,-0.239,-0.002,0.000,0.000,0.000,0.000,1.39626340160,0.01028984539,-400.0000,1.570796327,0.000000000,0.000000000,0.00000000000,-0.00008048707,-0.00045646484,0.00000000000,0.00000000000,0.00000000000,1111036.5902,11432.7982,6259149.0379,-5.2992,514.9727,0.0000,-0.239,-0.002,0.000,1.39626340160,0.01028984539,-400.0000,2.617
22300,1111036.0590,11484.2955,6259149.0379,-5.3230,514.9725,0.0000,-0.239,-0.002,0.000,0.000,0.000,0.000,1.39626340160,0.01033619605,-400.0000,1.570796327,0.000000000,0.000000000,0.00000000000,-0.00008048707,-0.00045646484,0.00000000000,0.00000000000,0.00000000000,1111036.0590,11484.2955,6259149.0379,-5.3230,514.9725,0.0000,-0.239,-0.002,0.000,1.39626340160,0.01033619605,-400.0000,2.617
22400,1111035.5255,11535.7927,6259149.0379,-5.3469,514.9722,0.0000,-0.239,-0.002,0.000,0.000,0.000,0.000,1.39626340160,0.01038254670,-400.0000,1.570796327,0.000000000,0.000000000,0.00000000000,-0.00008048707,-0.00045646484,0.00000000000,0.00000000000,0.00000000000,1111035.5255,11535.7927,6259149.0379,-5.3469,514.9722,0.0000,-0.239,-0.002,0.000,1.39626340160,0.01038254670,-400.0000,2.617
22500,1111034.9897,11587.2900,6259149.0379,-5.3708,514.9720,0.0000,-0.239,-0.002,0.000,0.000,0.000,0.000,1.39626340160,0.01042889736,-400.0000,1.570796327,0.000000000,0.000000000,0.00000000000,-0.00008048707,-0.00045646484,0.00000000000,0.00000000000,0.00000000000,1111034.9897,11587.2900,6259149.0379,-5.3708,514.9720,0.0000,-0.239,-0.002,0.000,1.39626340160,0.01042889736,-400.0000,2.617
22600,1111034.4514,11638.7871,6259149.0379,-5.3947,514.9717,0.0000,-0.239,-0.003,0.000,0.000,0.000,0.000,1.39626340160,0.01047524801,-400.0000,1.570796327,0.000000000,0.000000000,0.00000000000,-0.00008048707,-0.00045646484,0.00000000000,0.00000000000,0.00000000000,1111034.4514,11638.7871,6259149.0379,-5.3947,514.9717,0.0000,-0.239,-0.003,0.000,1.39626340160,0.01047524801,-400.0000,2.617
22700,1111033.9107,11690.2843,6259149.0379,-5.4185,514.9715,0.0000,-0.239,-0.003,0.000,0.000,0.000,0.000,1.39626340160,0.01052159867,-400.0000,1.570796327,0.000000000,0.000000000,0.00000000000,-0.00008048707,-0.00045646484,0.00000000000,0.00000000000,0.00000000000,1111033.9107,11690.2843,6259149.0379,-5.4185,514.9715,0.0000,-0.239,-0.003,0.000,1.39626340160,0.01052159867,-400.0000,2.617
22800,1111033.3677,11741.7814,6259149.0379,-5.4424,514.9712,0.0000,-0.239,-0.003,0.000,0.000,0.000,0.000,1.39626340160,0.01056794932,-400.0000,1.570796327,0.000000000,0.000000000,0.00000000000,-0.00008048707,-0.00045646484,0.00000000000,0.00000000000,0.00000000000,1111033.3677,11741.7814,6259149.0379,-5.4424,514.9712,0.0000,-0.239,-0.003,0.000,1.39626340160,0.01056794932,-400.0000,2.617
22900,1111032.8223,11793.2786,6259149.0379,-5.4663,514.9710,0.0000,-0.239,-0.003,0.000,0.000,0.000,0.000,1.39626340160,0.01061429998,-400.0000,1.570796327,0.000000000,0.000000000,0.00000000000,-0.00008048707,-0.00045646484,0.00000000000,0.00000000000,0.00000000000,1111032.8223,11793.2786,6259149.0379,-5.4663,514.9710,0.0000,-0.239,-0.003,0.000,1.39626340160,0.01061429998,-400.0000,2.617
23000,1111032.2744,11844.7756,6259149.0379,-5.4901,514.9707,0.0000,-0.239,-0.003,0.000,0.000,0.000,0.000,1.39626340160,0.01066065063,-400.0000,1.570796327,0.000000000,0.000000000,0.00000000000,-0.00008048707,-0.00045646484,0.00000000000,0.00000000000,0.00000000000,1111032.2744,11844.7756,6259149.0379,-5.4901,514.9707,0.0000,-0.239,-0.003,0.000,1.39626340160,0.01066065063,-400.0000,2.617
23100,1111031.7242,11896.2727,6259149.0379,-5.5140,514.9705,0.0000,-0.239,-0.003,0.000,0.000,0.000,0.000,1.39626340160,0.01070700129,-400.0000,1.570796327,0.000000000,0.000000000,0.00000000000,-0.00008048707,-0.00045646484,0.00000000000,0.00000000000,0.00000000000,1111031.7242,11896.2727,6259149.0379,-5.5140,514.9705,0.0000,-0.239,-0.003,0.000,1.39626340160,0.01070700129,-400.0000,2.617
23200,1111031.1716,11947.7697,6259149.0379,-5.5379,514.9702,0.0000,-0.239,-0.003,0.000,0.000,0.000,0.000,1.39626340160,0.01075335194,-400.0000,1.570796327,0.000000000,0.000000000,0.00000000000,-0.00008048707,-0.00045646484,0.00000000000,0.00000000000,0.00000000000,1111031.1716,11947.7697,6259149.0379,-5.5379,514.9702,0.0000,-0.239,-0.003,0.000,1.39626340160,0.01075335194,-400.0000,2.617
23300,1111030.6167,11999.2667,6259149.0379,-5.5617,514.9700,0.0000,-0.239,-0.003,0.000,0.000,0.000,0.000,1.39626340160,0.01079970260,-400.0000,1.570796327,0.000000000,0.000000000,0.00000000000,-0.00008048707,-0.00045646484,0.00000000000,0.00000000000,0.00000000000,1111030.6167,11999.2667,6259149.0379,-5.5617,514.9700,0.0000,-0.239,-0.003,0.000,1.39626340160,0.01079970260,-400.0000,2.617
23400,1111030.0593,12050.7637,6259149.0379,-5.5856,514.9697,0.0000,-0.239,-0.003,0.000,0.000,0.000,0.000,1.39626340160,0.01084605325,-400.0000,1.570796327,0.000000000,0.000000000,0.00000000000,-0.00008048707,-0.00045646484,0.00000000000,0.00000000000,0.00000000000,1111030.0593,12050.7637,6259149.0379,-5.5856,514.9697,0.0000,-0.239,-0.003,0.000,1.39626340160,0.01084605325,-400.0000,2.617
23500,1111029.4995,12102.2607,6259149.0379,-5.6095,514.9694,0.0000,-0.239,-0.003,0.000,0.000,0.000,0.000,1.39626340160,0.01089240391,-400.0000,1.570796327,0.000000000,0.000000000,0.00000000000,-0.00008048707,-0.00045646484,0.00000000000,0.00000000000,0.00000000000,1111029.4995,12102.2607,6259149.0379,-5.6095,514.9694,0.0000,-0.239,-0.003,0.000,1.39626340160,0.01089240391,-400.0000,2.617
23600,1111028.9374,12153.7576,6259149.0379,-5.6333,514.9692,0.0000,-0.239,-0.003,0.000,0.000,0.000,0.000,1.39626340160,0.01093875456,-400.0000,1.570796327,0.000000000,0.000000000,0.00000000000,-0.00008048707,-0.00045646484,0.00000000000,0.00000000000,0.00000000000,1111028.9374,12153.7576,6259149.0379,-5.6333,514.9692,0.0000,-0.239,-0.003,0.000,1.39626340160,0.01093875456,-400.0000,2.617
23700,1111028.3729,12205.2545,6259149.0379,-5.6572,514.9689,0.0000,-0.239,-0.003,0.000,0.000,0.000,0.000,1.39626340160,0.01098510522,-400.0000,1.570796327,0.000000000,0.000000000,0.00000000000,-0.00008048707,-0.00045646484,0.00000000000,0.00000000000,0.00000000000,1111028.3729,12205.2545,6259149.0379,-5.6572,514.9689,0.0000,-0.239,-0.003,0.000,1.39626340160,0.01098510522,-400.0000,2.617
23800,1111027.8059,12256.7514,6259149.0379,-5.6811,514.9687,0.0000,-0.239,-0.003,0.000,0.000,0.000,0.000,1.39626340160,0.01103145587,-400.0000,1.570796327,0.000000000,0.000000000,0.00000000000,-0.00008048707,-0.00045646484,0.00000000000,0.00000000000,0.00000000000,1111027.8059,12256.7514,6259149.0379,-5.6811,514.9687,0.0000,-0.239,-0.003,0.000,1.39626340160,0.01103145587,-400.0000,2.617
23900,1111027.2366,12308.2483,6259149.0379,-5.7050,514.9684,0.0000,-0.239,-0.003,0.000,0.000,0.000,0.000,1.39626340160,0.01107780653,-400.0000,1.570796327,0.000000000,0.000000000,0.00000000000,-0.00008048707,-0.00045646484,0.00000000000,0.00000000000,0.00000000000,1111027.2366,12308.2483,6259149.0379,-5.7050,514.9684,0.0000,-0.239,-0.003,0.000,1.39626340160,0.01107780653,-400.0000,2.617
24000,1111026.6650,12359.7451,6259149.0379,-5.7288,514.9681,0.0000,-0.239,-0.003,0.000,0.000,0.000,0.000,1.39626340160,0.01112415718,-400.0000,1.570796327,0.000000000,0.000000000,0.00000000000,-0.00008048707,-0.00045646484,0.00000000000,0.00000000000,0.00000000000,1111026.6650,12359.7451,6259149.0379,-5.7288,514.9681,0.0000,-0.239,-0.003,0.000,1.39626340160,0.01112415718,-400.0000,2.620
24100,1111026.0909,12411.2419,6259149.0379,-5.7527,514.9679,0.0000,-0.239,-0.003,0.000,0.000,0.000,0.000,1.39626340160,0.01117050783,-400.0000,1.570796327,0.000000000,0.000000000,0.00000000000,-0.00008048707,-0.00045646484,0.00000000000,0.00000000000,0.00000000000,1111026.0909,12411.2419,6259149.0379,-5.7527,514.9679,0.0000,-0.239,-0.003,0.000,1.39626340160,0.01117050783,-400.0000,2.620
24200,1111025.5144,12462.7387,6259149.0379,-5.7766,514.9676,0.0000,-0.239,-0.003,0.000,0.000,0.000,0.000,1.39626340160,0.01121685849,-400.0000,1.570796327,0.000000000,0.000000000,0.00000000000,-0.00008048707,-0.00045646484,0.00000000000,0.00000000000,0.00000000000,1111025.5144,12462.7387,6259149.0379,-5.7766,514.9676,0.0000,-0.239,-0.003,0.000,1.39626340160,0.01121685849,-400.0000,2.620
24300,1111024.9356,12514.2354,6259149.0379,-5.8004,514.9673,0.0000,-0.239,-0.003,0.000,0.000,0.000,0.000,1.39626340160,0.01126320914,-400.0000,1.570796327,0.000000000,0.000000000,0.00000000000,-0.00008048707,-0.00045646484,0.00000000000,0.00000000000,0.00000000000,1111024.9356,12514.2354,6259149.0379,-5.8004,514.9673,0.0000,-0.239,-0.003,0.000,1.39626340160,0.01126320914,-400.0000,2.620
24400,1111024.3543,12565.7321,6259149.0379,-5.8243,514.9671,0.0000,-0.239,-0.003,0.000,0.000,0.000,0.000,1.39626340160,0.01130955980,-400.0000,1.570796327,0.000000000,0.000000000,0.00000000000,-0.00008048707,-0.00045646484,0.00000000000,0.00000000000,0.00000000000,1111024.3543,12565.7321,6259149.0379,-5.8243,514.9671,0.0000,-0.239,-0.003,0.000,1.39626340160,0.01130955980,-400.0000,2.620
24500,1111023.7707,12617.2288,6259149.0379,-5.8482,514.9668,0.0000,-0.239,-0.003,0.000,0.000,0.000,0.000,1.39626340160,0.01135591045,-400.0000,1.570796327,0.000000000,0.000000000,0.00000000000,-0.00008048707,-0.00045646484,0.00000000000,0.00000000000,0.00000000000,1111023.7707,12617.2288,6259149.0379,-5.8482,514.9668,0.0000,-0.239,-0.003,0.000,1.39626340160,0.01135591045,-400.0000,2.620
24600,1111023.1847,12668.7255,6259149.0379,-5.8720,514.9665,0.0000,-0.239,-0.003,0.000,0.000,0.000,0.000,1.39626340160,0.01140226111,-400.0000,1.570796327,0.000000000,0.000000000,0.00000000000,-0.00008048707,-0.00045646484,0.00000000000,0.00000000000,0.00000000000,1111023.1847,12668.7255,6259149.0379,-5.8720,514.9665,0.0000,-0.239,-0.003,0.000,1.39626340160,0.01140226111,-400.0000,2.620
24700,1111022.5963,12720.2221,6259149.0379,-5.8959,514.9662,0.0000,-0.239,-0.003,0.000,0.000,0.000,0.000,1.39626340160,0.01144861176,-400.0000,1.570796327,0.000000000,0.000000000,0.00000000000,-0.00008048707,-0.00045646484,0.00000000000,0.00000000000,0.00000000000,1111022.5963,12720.2221,6259149.0379,-5.8959,514.9662,0.0000,-0.239,-0.003,0.000,1.39626340160,0.01144861176,-400.0000,2.620
24800,1111022.0055,12771.7187,6259149.0379,-5.9198,514.9660,0.0000,-0.239,-0.003,0.000,0.000,0.000,0.000,1.39626340160,0.01149496242,-400.0000,1.570796327,0.000000000,0.000000000,0.00000000000,-0.00008048707,-0.00045646484,0.00000000000,0.00000000000,0.00000000000,1111022.0055,12771.7187,6259149.0379,-5.9198,514.9660,0.0000,-0.239,-0.003,0.000,1.39626340160,0.01149496242,-400.0000,2.620
24900,1111021.4123,12823.2153,6259149.0379,-5.9436,514.9657,0.0000,-0.239,-0.003,0.000,0.000,0.000,0.000,1.39626340160,0.01154131307,-400.0000,1.570796327,0.000000000,0.000000000,0.00000000000,-0.00008048707,-0.00045646484,0.00000000000,0.00000000000,0.00000000000,1111021.4123,12823.2153,6259149.0379,-5.9436,514.9657,0.0000,-0.239,-0.003,0.000,1.39626340160,0.01154131307,-400.0000,2.620
25000,1111020.8168,12874.7119,6259149.0379,-5.9675,514.9654,0.0000,-0.239,-0.003,0.000,0.000,0.000,0.000,1.39626340160,0.01158766373,-400.0000,1.570796327,0.000000000,0.000000000,0.00000000000,-0.00008048707,-0.00045646484,0.00000000000,0.00000000000,0.00000000000,1111020.8168,12874.7119,6259149.0379,-5.9675,514.9654,0.0000,-0.239,-0.003,0.000,1.39626340160,0.01158766373,-400.0000,2.620
25100,1111020.2188,12926.2084,6259149.0379,-5.9914,514.9651,0.0000,-0.239,-0.003,0.000,0.000,0.000,0.000,1.39626340160,0.01163401438,-400.0000,1.570796327,0.000000000,0.000000000,0.00000000000,-0.00008048707,-0.00045646484,0.00000000000,0.00000000000,0.00000000000,1111020.2188,12926.2084,6259149.0379,-5.9914,514.9651,0.0000,-0.239,-0.003,0.000,1.39626340160,0.01163401438,-400.0000,2.620
25200,1111019.6185,12977.7049,6259149.0379,-6.0153,514.9649,0.0000,-0.239,-0.003,0.000,0.000,0.000,0.000,1.39626340160,0.01168036504,-400.0000,1.570796327,0.000000000,0.000000000,0.00000000000,-0.00008048707,-0.00045646484,0.00000000000,0.00000000000,0.00000000000,1111019.6185,12977.7049,6259149.0379,-6.0153,514.9649,0.0000,-0.239,-0.003,0.000,1.39626340160,0.01168036504,-400.0000,2.620
25300,1111019.0158,13029.2014,6259149.0379,-6.0391,514.9646,0.0000,-0.239,-0.003,0.000,0.000,0.000,0.000,1.39626340160,0.01172671569,-400.0000,1.570796327,0.000000000,0.000000000,0.00000000000,-0.00008048707,-0.00045646484,0.00000000000,0.00000000000,0.00000000000,1111019.0158,13029.2014,6259149.0379,-6.0391,514.9646,0.0000,-0.239,-0.003,0.000,1.39626340160,0.01172671569,-400.0000,2.620
25400,1111018.4107,13080.6978,6259149.0379,-6.0630,514.9643,0.0000,-0.239,-0.003,0.000,0.000,0.000,0.000,1.39626340160,0.01177306635,-400.0000,1.570796327,0.000000000,0.000000000,0.00000000000,-0.00008048707,-0.00045646484,0.00000000000,0.00000000000,0.00000000000,1111018.4107,13080.6978,6259149.0379,-6.0630,514.9643,0.0000,-0.239,-0.003,0.000,1.39626340160,0.01177306635,-400.0000,2.620
25500,1111017.8032,13132.1942,6259149.0379,-6.0869,514.9640,0.0000,-0.239,-0.003,0.000,0.000,0.000,0.000,1.39626340160,0.01181941700,-400.0000,1.570796327,0.000000000,0.000000000,0.00000000000,-0.00008048707,-0.00045646484,0.00000000000,0.00000000000,0.00000000000,1111017.8032,13132.1942,6259149.0379,-6.0869,514.9640,0.0000,-0.239,-0.003,0.000,1.39626340160,0.01181941700,-400.0000,2.620
25600,1111017.1933,13183.6906,6259149.0379,-6.1107,514.9637,0.0000,-0.239,-0.003,0.000,0.000,0.000,0.000,1.39626340160,0.01186576766,-400.0000,1.570796327,0.000000000,0.000000000,0.00000000000,-0.00008048707,-0.00045646484,0.00000000000,0.00000000000,0.00000000000,1111017.1933,13183.6906,6259149.0379,-6.1107,514.9637,0.0000,-0.239,-0.003,0.000,1.39626340160,0.01186576766,-400.0000,2.620
25700,1111016.5811,13235.1870,6259149.0379,-6.1346,514.9635,0.0000,-0.239,-0.003,0.000,0.000,0.000,0.000,1.39626340160,0.01191211831,-400.0000,1.570796327,0.000000000,0.000000000,0.00000000000,-0.00008048707,-0.00045646484,0.00000000000,0.00000000000,0.00000000000,1111016.5811,13235.1870,6259149.0379,-6.1346,514.9635,0.0000,-0.239,-0.003,0.000,1.39626340160,0.01191211831,-400.0000,2.620
25800,1111015.9664,13286.6833,6259149.0379,-6.1585,514.9632,0.0000,-0.239,-0.003,0.000,0.000,0.000,0.000,1.39626340160,0.01195846897,-400.0000,1.570796327,0.000000000,0.000000000,0.00000000000,-0.00008048707,-0.00045646484,0.00000000000,0.00000000000,0.00000000000,1111015.9664,13286.6833,6259149.0379,-6.1585,514.9632,0.0000,-0.239,-0.003,0.000,1.39626340160,0.01195846897,-400.0000,2.620
25900,1111015.3494,13338.1796,6259149.0379,-6.1823,514.9629,0.0000,-0.239,-0.003,0.000,0.000,0.000,0.000,1.39626340160,0.01200481962,-400.0000,1.570796327,0.000000000,0.000000000,0.00000000000,-0.00008048707,-0.00045646484,0.00000000000,0.00000000000,0.00000000000,1111015.3494,13338.1796,6259149.0379,-6.1823,514.9629,0.0000,-0.239,-0.003,0.000,1.39626340160,0.01200481962,-400.0000,2.620
26000,1111014.7299,13389.6759,6259149.0379,-6.2062,514.9626,0.0000,-0.239,-0.003,0.000,0.000,0.000,0.000,1.39626340160,0.01205117028,-400.0000,1.570796327,0.000000000,0.000000000,0.00000000000,-0.00008048707,-0.00045646484,0.00000000000,0.00000000000,0.00000000000,1111014.7299,13389.6759,6259149.0379,-6.2062,514.9626,0.0000,-0.239,-0.003,0.000,1.39626340160,0.01205117028,-400.0000,2.620
26100,1111014.1081,13441.1721,6259149.0379,-6.2301,514.9623,0.0000,-0.239,-0.003,0.000,0.000,0.000,0.000,1.39626340160,0.01209752093,-400.0000,1.570796327,0.000000000,0.000000000,0.00000000000,-0.00008048707,-0.00045646484,0.00000000000,0.00000000000,0.00000000000,1111014.1081,13441.1721,6259149.0379,-6.2301,514.9623,0.0000,-0.239,-0.003,0.000,1.39626340160,0.01209752093,-400.0000,2.620
26200,1111013.4839,13492.6684,6259149.0379,-6.2539,514.9620,0.0000,-0.239,-0.003,0.000,0.000,0.000,0.000,1.39626340160,0.01214387159,-400.0000,1.570796327,0.000000000,0.000000000,0.00000000000,-0.00008048707,-0.00045646484,0.00000000000,0.00000000000,0.00000000000,1111013.4839,13492.6684,6259149.0379,-6.2539,514.9620,0.0000,-0.239,-0.003,0.000,1.39626340160,0.01214387159,-400.0000,2.620
26300,1111012.8573,13544.1645,6259149.0379,-6.2778,514.9617,0.0000,-0.239,-0.003,0.000,0.000,0.000,0.000,1.39626340160,0.01219022224,-400.0000,1.570796327,0.000000000,0.000000000,0.00000000000,-0.00008048707,-0.00045646484,0.00000000000,0.00000000000,0.00000000000,1111012.8573,13544.1645,6259149.0379,-6.2778,514.9617,0.0000,-0.239,-0.003,0.000,1.39626340160,0.01219022224,-400.0000,2.620
26400,1111012.2284,13595.6607,6259149.0379,-6.3017,514.9614,0.0000,-0.239,-0.003,0.000,0.000,0.000,0.000,1.39626340160,0.01223657290,-400.0000,1.570796327,0.000000000,0.000000000,0.00000000000,-0.00008048707,-0.00045646484,0.00000000000,0.00000000000,0.00000000000,1111012.2284,13595.6607,6259149.0379,-6.3017,514.9614,0.0000,-0.239,-0.003,0.000,1.39626340160,0.01223657290,-400.0000,2.620
26500,1111011.5970,13647.1568,6259149.0379,-6.3255,514.9612,0.0000,-0.239,-0.003,0.000,0.000,0.000,0.000,1.39626340160,0.01228292355,-400.0000,1.570796327,0.000000000,0.000000000,0.00000000000,-0.00008048707,-0.00045646484,0.00000000000,0.00000000000,0.00000000000,1111011.5970,13647.1568,6259149.0379,-6.3255,514.9612,0.0000,-0.239,-0.003,0.000,1.39626340160,0.01228292355,-400.0000,2.620
26600,1111010.9632,13698.6529,6259149.0379,-6.3494,514.9609,0.0000,-0.239,-0.003,0.000,0.000,0.000,0.000,1.39626340160,0.01232927421,-400.0000,1.570796327,0.000000000,0.000000000,0.00000000000,-0.00008048707,-0.00045646484,0.00000000000,0.00000000000,0.00000000000,1111010.9632,13698.6529,6259149.0379,-6.3494,514.9609,0.0000,-0.239,-0.003,0.000,1.39626340160,0.01232927421,-400.0000,2.620
26700,1111010.3271,13750.1490,6259149.0379,-6.3733,514.9606,0.0000,-0.239,-0.003,0.000,0.000,0.000,0.000,1.39626340160,0.01237562486,-400.0000,1.570796327,0.000000000,0.000000000,0.00000000000,-0.00008048707,-0.00045646484,0.00000000000,0.00000000000,0.00000000000,1111010.3271,13750.1490,6259149.0379,-6.3733,514.9606,0.0000,-0.239,-0.003,0.000,1.39626340160,0.01237562486,-400.0000,2.620
26800,1111009.6886,13801.6450,6259149.0379,-6.3972,514.9603,0.0000,-0.239,-0.003,0.000,0.000,0.000,0.000,1.39626340160,0.01242197552,-400.0000,1.570796327,0.000000000,0.000000000,0.00000000000,-0.00008048707,-0.00045646484,0.00000000000,0.00000000000,0.00000000000,1111009.6886,13801.6450,6259149.0379,-6.3972,514.9603,0.0000,-0.239,-0.003,0.000,1.39626340160,0.01242197552,-400.0000,2.620
26900,1111009.0477,13853.1411,6259149.0379,-6.4210,514.9600,0.0000,-0.239,-0.003,0.000,0.000,0.000,0.000,1.39626340160,0.01246832617,-400.0000,1.570796327,0.000000000,0.000000000,0.00000000000,-0.00008048707,-0.00045646484,0.00000000000,0.00000000000,0.00000000000,1111009.0477,13853.1411,6259149.0379,-6.4210,514.9600,0.0000,-0.239,-0.003,0.000,1.39626340160,0.01246832617,-400.0000,2.620
27000,1111008.4044,13904.6370,6259149.0379,-6.4449,514.9597,0.0000,-0.239,-0.003,0.000,0.000,0.000,0.000,1.39626340160,0.01251467683,-400.0000,1.570796327,0.000000000,0.000000000,0.00000000000,-0.00008048707,-0.00045646484,0.00000000000,0.00000000000,0.00000000000,1111008.4044,13904.6370,6259149.0379,-6.4449,514.9597,0.0000,-0.239,-0.003,0.000,1.39626340160,0.01251467683,-400.0000,2.620
27100,1111007.7587,13956.1330,6259149.0379,-6.4688,514.9594,0.0000,-0.239,-0.003,0.000,0.000,0.000,0.000,1.39626340160,0.01256102748,-400.0000,1.570796327,0.000000000,0.000000000,0.00000000000,-0.00008048707,-0.00045646484,0.00000000000,0.00000000000,0.00000000000,1111007.7587,13956.1330,6259149.0379,-6.4688,514.9594,0.0000,-0.239,-0.003,0.000,1.39626340160,0.01256102748,-400.0000,2.620
27200,1111007.1106,14007.6289,6259149.0379,-6.4926,514.9591,0.0000,-0.239,-0.003,0.000,0.000,0.000,0.000,1.39626340160,0.01260737814,-400.0000,1.570796327,0.000000000,0.000000000,0.00000000000,-0.00008048707,-0.00045646484,0.00000000000,0.00000000000,0.00000000000,1111007.1106,14007.6289,6259149.0379,-6.4926,514.9591,0.0000,-0.239,-0.003,0.000,1.39626340160,0.01260737814,-400.0000,2.620
27300,1111006.4602,14059.1248,6259149.0379,-6.5165,514.9588,0.0000,-0.239,-0.003,0.000,0.000,0.000,0.000,1.39626340160,0.01265372879,-400.0000,1.570796327,0.000000000,0.000000000,0.00000000000,-0.00008048707,-0.00045646484,0.00000000000,0.00000000000,0.00000000000,1111006.4602,14059.1248,6259149.0379,-6.5165,514.9588,0.0000,-0.239,-0.003,0.000,1.39626340160,0.01265372879,-400.0000,2.620
27400,1111005.8073,14110.6207,6259149.0379,-6.5404,514.9585,0.0000,-0.239,-0.003,0.000,0.000,0.000,0.000,1.39626340160,0.01270007945,-400.0000,1.570796327,0.000000000,0.000000000,0.00000000000,-0.00008048707,-0.00045646484,0.00000000000,0.00000000000,0.00000000000,1111005.8073,14110.6207,6259149.0379,-6.5404,514.9585,0.0000,-0.239,-0.003,0.000,1.39626340160,0.01270007945,-400.0000,2.620
27500,1111005.1521,14162.1165,6259149.0379,-6.5642,514.9582,0.0000,-0.239,-0.003,0.000,0.000,0.000,0.000,1.39626340160,0.01274643010,-400.0000,1.570796327,0.000000000,0.000000000,0.00000000000,-0.00008048707,-0.00045646484,0.00000000000,0.00000000000,0.00000000000,1111005.1521,14162.1165,6259149.0379,-6.5642,514.9582,0.0000,-0.239,-0.003,0.000,1.39626340160,0.01274643010,-400.0000,2.620
27600,1111004.4945,14213.6123,6259149.0379,-6.5881,514.9579,0.0000,-0.239,-0.003,0.000,0.000,0.000,0.000,1.39626340160,0.01279278076,-400.0000,1.570796327,0.000000000,0.000000000,0.00000000000,-0.00008048707,-0.00045646484,0.00000000000,0.00000000000,0.00000000000,1111004.4945,14213.6123,6259149.0379,-6.5881,514.9579,0.0000,-0.239,-0.003,0.000,1.39626340160,0.01279278076,-400.0000,2.620
27700,1111003.8345,14265.1081,6259149.0379,-6.6120,514.9576,0.0000,-0.239,-0.003,0.000,0.000,0.000,0.000,1.39626340160,0.01283913141,-400.0000,1.570796327,0.000000000,0.000000000,0.00000000000,-0.00008048707,-0.00045646484,0.00000000000,0.00000000000,0.00000000000,1111003.8345,14265.1081,6259149.0379,-6.6120,514.9576,0.0000,-0.239,-0.003,0.000,1.39626340160,0.01283913141,-400.0000,2.620
27800,1111003.1721,14316.6038,6259149.0379,-6.6358,514.9572,0.0000,-0.239,-0.003,0.000,0.000,0.000,0.000,1.39626340160,0.01288548207,-400.0000,1.570796327,0.000000000,0.000000000,0.00000000000,-0.00008048707,-0.00045646484,0.00000000000,0.00000000000,0.00000000000,1111003.1721,14316.6038,6259149.0379,-6.6358,514.9572,0.0000,-0.239,-0.003,0.000,1.39626340160,0.01288548207,-400.0000,2.620
27900,1111002.5073,14368.0995,6259149.0379,-6.6597,514.9569,0.0000,-0.239,-0.003,0.000,0.000,0.000,0.000,1.39626340160,0.01293183272,-400.0000,1.570796327,0.000000000,0.000000000,0.00000000000,-0.00008048707,-0.00045646484,0.00000000000,0.00000000000,0.00000000000,1111002.5073,14368.0995,6259149.0379,-6.6597,514.9569,0.0000,-0.239,-0.003,0.000,1.39626340160,0.01293183272,-400.0000,2.620
28000,1111001.8402,14419.5952,6259149.0379,-6.6836,514.9566,0.0000,-0.239,-0.003,0.000,0.000,0.000,0.000,1.39626340160,0.01297818338,-400.0000,1.570796327,0.000000000,0.000000000,0.00000000000,-0.00008048707,-0.00045646484,0.00000000000,0.00000000000,0.00000000000,1111001.8402,14419.5952,6259149.0379,-6.6836,514.9566,0.0000,-0.239,-0.003,0.000,1.39626340160,0.01297818338,-400.0000,2.620
28100,1111001.1706,14471.0908,6259149.0379,-6.7074,514.9563,0.0000,-0.239,-0.003,0.000,0.000,0.000,0.000,1.39626340160,0.01302453403,-400.0000,1.570796327,0.000000000,0.000000000,0.00000000000,-0.00008048707,-0.00045646484,0.00000000000,0.00000000000,0.00000000000,1111001.1706,14471.0908,6259149.0379,-6.7074,514.9563,0.0000,-0.239,-0.003,0.000,1.39626340160,0.01302453403,-400.0000,2.620
28200,1111000.4987,14522.5865,6259149.0379,-6.7313,514.9560,0.0000,-0.239,-0.003,0.000,0.000,0.000,0.000,1.39626340160,0.01307088469,-400.0000,1.570796327,0.000000000,0.000000000,0.00000000000,-0.00008048707,-0.00045646484,0.00000000000,0.00000000000,0.00000000000,1111000.4987,14522.5865,6259149.0379,-6.7313,514.9560,0.0000,-0.239,-0.003,0.000,1.39626340160,0.01307088469,-400.0000,2.620
28300,1110999.8243,14574.0821,6259149.0379,-6.7552,514.9557,0.0000,-0.239,-0.003,0.000,0.000,0.000,0.000,1.39626340160,0.01311723534,-400.0000,1.570796327,0.000000000,0.000000000,0.00000000000,-0.00008048707,-0.00045646484,0.00000000000,0.00000000000,0.00000000000,1110999.8243,14574.0821,6259149.0379,-6.7552,514.9557,0.0000,-0.239,-0.003,0.000,1.39626340160,0.01311723534,-400.0000,2.620
28400,1110999.1476,14625.5776,6259149.0379,-6.7791,514.9554,0.0000,-0.239,-0.003,0.000,0.000,0.000,0.000,1.39626340160,0.01316358600,-400.0000,1.570796327,0.000000000,0.000000000,0.00000000000,-0.00008048707,-0.00045646484,0.00000000000,0.00000000000,0.00000000000,1110999.1476,14625.5776,6259149.0379,-6.7791,514.9554,0.0000,-0.239,-0.003,0.000,1.39626340160,0.01316358600,-400.0000,2.620
28500,1110998.4685,14677.0731,6259149.0379,-6.8029,514.9551,0.0000,-0.239,-0.003,0.000,0.000,0.000,0.000,1.39626340160,0.01320993665,-400.0000,1.570796327,0.000000000,0.000000000,0.00000000000,-0.00008048707,-0.00045646484,0.00000000000,0.00000000000,0.00000000000,1110998.4685,14677.0731,6259149.0379,-6.8029,514.9551,0.0000,-0.239,-0.003,0.000,1.39626340160,0.01320993665,-400.0000,2.620
28600,1110997.7870,14728.5686,6259149.0379,-6.8268,514.9548,0.0000,-0.239,-0.003,0.000,0.000,0.000,0.000,1.39626340160,0.01325628731,-400.0000,1.570796327,0.000000000,0.000000000,0.00000000000,-0.00008048707,-0.00045646484,0.00000000000,0.00000000000,0.00000000000,1110997.7870,14728.5686,6259149.0379,-6.8268,514.9548,0.0000,-0.239,-0.003,0.000,1.39626340160,0.01325628731,-400.0000,2.620
28700,1110997.1032,14780.0641,6259149.0379,-6.8507,514.9544,0.0000,-0.239,-0.003,0.000,0.000,0.000,0.000,1.39626340160,0.01330263796,-400.0000,1.570796327,0.000000000,0.000000000,0.00000000000,-0.00008048707,-0.00045646484,0.00000000000,0.00000000000,0.00000000000,1110997.1032,14780.0641,6259149.0379,-6.8507,514.9544,0.0000,-0.239,-0.003,0.000,1.39626340160,0.01330263796,-400.0000,2.620
28800,1110996.4169,14831.5595,6259149.0379,-6.8745,514.9541,0.0000,-0.239,-0.003,0.000,0.000,0.000,0.000,1.39626340160,0.01334898862,-400.0000,1.570796327,0.000000000,0.000000000,0.00000000000,-0.00008048707,-0.00045646484,0.00000000000,0.00000000000,0.00000000000,1110996.4169,14831.5595,6259149.0379,-6.8745,514.9541,0.0000,-0.239,-0.003,0.000,1.39626340160,0.01334898862,-400.0000,2.620
28900,1110995.7283,14883.0549,6259149.0379,-6.8984,514.9538,0.0000,-0.239,-0.003,0.000,0.000,0.000,0.000,1.39626340160,0.01339533927,-400.0000,1.570796327,0.000000000,0.000000000,0.00000000000,-0.00008048707,-0.00045646484,0.00000000000,0.00000000000,0.00000000000,1110995.7283,14883.0549,6259149.0379,-6.8984,514.9538,0.0000,-0.239,-0.003,0.000,1.39626340160,0.01339533927,-400.0000,2.620
29000,1110995.0372,14934.5503,6259149.0379,-6.9223,514.9535,0.0000,-0.239,-0.003,0.000,0.000,0.000,0.000,1.39626340160,0.01344168993,-400.0000,1.570796327,0.000000000,0.000000000,0.00000000000,-0.00008048707,-0.00045646484,0.00000000000,0.00000000000,0.00000000000,1110995.0372,14934.5503,6259149.0379,-6.9223,514.9535,0.0000,-0.239,-0.003,0.000,1.39626340160,0.01344168993,-400.0000,2.620
29100,1110994.3438,14986.0456,6259149.0379,-6.9461,514.9532,0.0000,-0.239,-0.003,0.000,0.000,0.000,0.000,1.39626340160,0.01348804058,-400.0000,1.570796327,0.000000000,0.000000000,0.00000000000,-0.00008048707,-0.00045646484,0.00000000000,0.00000000000,0.00000000000,1110994.3438,14986.0456,6259149.0379,-6.9461,514.9532,0.0000,-0.239,-0.003,0.000,1.39626340160,0.01348804058,-400.0000,2.620
29200,1110993.6480,15037.5409,6259149.0379,-6.9700,514.9528,0.0000,-0.239,-0.003,0.000,0.000,0.000,0.000,1.39626340160,0.01353439124,-400.0000,1.570796327,0.000000000,0.000000000,0.00000000000,-0.00008048707,-0.00045646484,0.00000000000,0.00000000000,0.00000000000,1110993.6480,15037.5409,6259149.0379,-6.9700,514.9528,0.0000,-0.239,-0.003,0.000,1.39626340160,0.01353439124,-400.0000,2.620
29300,1110992.9498,15089.0362,6259149.0379,-6.9939,514.9525,0.0000,-0.239,-0.003,0.000,0.000,0.000,0.000,1.39626340160,0.01358074189,-400.0000,1.570796327,0.000000000,0.000000000,0.00000000000,-0.00008048707,-0.00045646484,0.00000000000,0.00000000000,0.00000000000,1110992.9498,15089.0362,6259149.0379,-6.9939,514.9525,0.0000,-0.239,-0.003,0.000,1.39626340160,0.01358074189,-400.0000,2.620
29400,1110992.2492,15140.5314,6259149.0379,-7.0177,514.9522,0.0000,-0.239,-0.003,0.000,0.000,0.000,0.000,1.39626340160,0.01362709255,-400.0000,1.570796327,0.000000000,0.000000000,0.00000000000,-0.00008048707,-0.00045646484,0.00000000000,0.00000000000,0.00000000000,1110992.2492,15140.5314,6259149.0379,-7.0177,514.9522,0.0000,-0.239,-0.003,0.000,1.39626340160,0.01362709255,-400.0000,2.620
29500,1110991.5463,15192.0266,6259149.0379,-7.0416,514.9519,0.0000,-0.239,-0.003,0.000,0.000,0.000,0.000,1.39626340160,0.01367344320,-400.0000,1.570796327,0.000000000,0.000000000,0.00000000000,-0.00008048707,-0.00045646484,0.00000000000,0.00000000000,0.00000000000,1110991.5463,15192.0266,6259149.0379,-7.0416,514.9519,0.0000,-0.239,-0.003,0.000,1.39626340160,0.01367344320,-400.0000,2.620
29600,1110990.8409,15243.5218,6259149.0379,-7.0655,514.9515,0.0000,-0.239,-0.003,0.000,0.000,0.000,0.000,1.39626340160,0.01371979386,-400.0000,1.570796327,0.000000000,0.000000000,0.00000000000,-0.00008048707,-0.00045646484,0.00000000000,0.00000000000,0.00000000000,1110990.8409,15243.5218,6259149.0379,-7.0655,514.9515,0.0000,-0.239,-0.003,0.000,1.39626340160,0.01371979386,-400.0000,2.620
29700,1110990.1332,15295.0169,6259149.0379,-7.0893,514.9512,0.0000,-0.239,-0.003,0.000,0.000,0.000,0.000,1.39626340160,0.01376614451,-400.0000,1.570796327,0.000000000,0.000000000,0.00000000000,-0.00008048707,-0.00045646484,0.00000000000,0.00000000000,0.00000000000,1110990.1332,15295.0169,6259149.0379,-7.0893,514.9512,0.0000,-0.239,-0.003,0.000,1.39626340160,0.01376614451,-400.0000,2.620
29800,1110989.4230,15346.5120,6259149.0379,-7.1132,514.9509,0.0000,-0.239,-0.003,0.000,0.000,0.000,0.000,1.39626340160,0.01381249517,-400.0000,1.570796327,0.000000000,0.000000000,0.00000000000,-0.00008048707,-0.00045646484,0.00000000000,0.00000000000,0.00000000000,1110989.4230,15346.5120,6259149.0379,-7.1132,514.9509,0.0000,-0.239,-0.003,0.000,1.39626340160,0.01381249517,-400.0000,2.620
29900,1110988.7105,15398.0071,6259149.0379,-7.1371,514.9505,0.0000,-0.239,-0.003,0.000,0.000,0.000,0.000,1.39626340160,0.01385884582,-400.0000,1.570796327,0.000000000,0.000000000,0.00000000000,-0.00008048707,-0.00045646484,0.00000000000,0.00000000000,0.00000000000,1110988.7105,15398.0071,6259149.0379,-7.1371,514.9505,0.0000,-0.239,-0.003,0.000,1.39626340160,0.01385884582,-400.0000,2.620
30000,1110987.9956,15449.5021,6259149.0379,-7.1609,514.9502,0.0000,-0.239,-0.003,0.000,0.000,0.000,0.000,1.39626340160,0.01390519648,-400.0000,1.570796327,0.000000000,0.000000000,0.00000000000,-0.00008048707,-0.00045646484,0.00000000000,0.00000000000,0.00000000000,1110987.9956,15449.5021,6259149.0379,-7.1609,514.9502,0.0000,-0.239,-0.003,0.000,1.39626340160,0.01390519648,-400.0000,2.623
30100,1110987.2783,15500.9971,6259149.0379,-7.1848,514.9499,0.0000,-0.239,-0.003,0.000,0.000,0.000,0.000,1.39626340160,0.01395154713,-400.0000,1.570796327,0.000000000,0.000000000,0.00000000000,-0.00008048707,-0.00045646484,0.00000000000,0.00000000000,0.00000000000,1110987.2783,15500.9971,6259149.0379,-7.1848,514.9499,0.0000,-0.239,-0.003,0.000,1.39626340160,0.01395154713,-400.0000,2.623
30200,1110986.5587,15552.4921,6259149.0379,-7.2087,514.9495,0.0000,-0.239,-0.003,0.000,0.000,0.000,0.000,1.39626340160,0.01399789778,-400.0000,1.570796327,0.000000000,0.000000000,0.00000000000,-0.00008048707,-0.00045646484,0.00000000000,0.00000000000,0.00000000000,1110986.5587,15552.4921,6259149.0379,-7.2087,514.9495,0.0000,-0.239,-0.003,0.000,1.39626340160,0.01399789778,-400.0000,2.623
30300,1110985.8366,15603.9870,6259149.0379,-7.2326,514.9492,0.0000,-0.239,-0.003,0.000,0.000,0.000,0.000,1.39626340160,0.01404424844,-400.0000,1.570796327,0.000000000,0.000000000,0.00000000000,-0.00008048707,-0.00045646484,0.00000000000,0.00000000000,0.00000000000,1110985.8366,15603.9870,6259149.0379,-7.2326,514.9492,0.0000,-0.239,-0.003,0.000,1.39626340160,0.01404424844,-400.0000,2.623
30400,1110985.1122,15655.4819,6259149.0379,-7.2564,514.9489,0.0000,-0.239,-0.003,0.000,0.000,0.000,0.000,1.39626340160,0.01409059909,-400.0000,1.570796327,0.000000000,0.000000000,0.00000000000,-0.00008048707,-0.00045646484,0.00000000000,0.00000000000,0.00000000000,1110985.1122,15655.4819,6259149.0379,-7.2564,514.9489,0.0000,-0.239,-0.003,0.000,1.39626340160,0.01409059909,-400.0000,2.623
30500,1110984.3853,15706.9768,6259149.0379,-7.2803,514.9485,0.0000,-0.239,-0.003,0.000,0.000,0.000,0.000,1.39626340160,0.01413694975,-400.0000,1.570796327,0.000000000,0.000000000,0.00000000000,-0.00008048707,-0.00045646484,0.00000000000,0.00000000000,0.00000000000,1110984.3853,15706.9768,6259149.0379,-7.2803,514.9485,0.0000,-0.239,-0.003,0.000,1.39626340160,0.01413694975,-400.0000,2.623
30600,1110983.6561,15758.4716,6259149.0379,-7.3042,514.9482,0.0000,-0.239,-0.003,0.000,0.000,0.000,0.000,1.39626340160,0.01418330040,-400.0000,1.570796327,0.000000000,0.000000000,0.00000000000,-0.00008048707,-0.00045646484,0.00000000000,0.00000000000,0.00000000000,1110983.6561,15758.4716,6259149.0379,-7.3042,514.9482,0.0000,-0.239,-0.003,0.000,1.39626340160,0.01418330040,-400.0000,2.623
30700,1110982.9245,15809.9664,6259149.0379,-7.3280,514.9479,0.0000,-0.239,-0.003,0.000,0.000,0.000,0.000,1.39626340160,0.01422965106,-400.0000,1.570796327,0.000000000,0.000000000,0.00000000000,-0.00008048707,-0.00045646484,0.00000000000,0.00000000000,0.00000000000,1110982.9245,15809.9664,6259149.0379,-7.3280,514.9479,0.0000,-0.239,-0.003,0.000,1.39626340160,0.01422965106,-400.0000,2.623
