PC Time         Time Validity   Lat Unc         Lon Unc         Hgt Unc         N Vel Unc       E Vel Unc       D Vel Unc       N Tilt Unc      E Tilt Unc      D Tilt Unc      Acc X Bias Corr Acc Y Bias Corr Acc Z Bias Corr Acc X Unc       Acc Y Unc       Acc Z Unc       Gy X Drift Corr Gy Y Drift Corr Gy Z Drift Corr Gyro X Bias     Gyro Y Bias     Gyro Z Bias     Rx Clk Err      Clk Err Unc     Rx Clk Rate Err Clk Rate Unc    Processor Temp  PCB Temp        
+1.4626470e+003 +8.2495808e+001 +1.4999998e+002 +1.5000000e+002 +1.5000000e+002 +3.0001855e-001 +3.0001855e-001 +3.0001053e-001 +8.7266460e-002 +8.7266460e-002 +8.7266460e-002 +0.0000000e+000 +0.0000000e+000 +0.0000000e+000 +9.8306078e-001 +9.8306078e-001 +9.8306078e-001 +0.0000000e+000 +0.0000000e+000 +0.0000000e+000 +4.8481370e-003 +4.8481370e-003 +4.8481370e-003 +0.0000000e+000 +1.0000000e+005 +0.0000000e+000 +1.0000000e+003 +0.0000000e+000 +0.0000000e+000 
+1.4627410e+003 +8.2594560e+001 +1.4999998e+002 +1.5000000e+002 +1.5000000e+002 +3.2771304e-001 +3.2773331e-001 +3.1617749e-001 +8.7268040e-002 +8.7268040e-002 +8.7268040e-002 +0.0000000e+000 +0.0000000e+000 +0.0000000e+000 +9.8306078e-001 +9.8306078e-001 +9.8306078e-001 +0.0000000e+000 +0.0000000e+000 +0.0000000e+000 +4.8481370e-003 +4.8481370e-003 +4.8481370e-003 +0.0000000e+000 +1.0000005e+005 +0.0000000e+000 +1.0000000e+003 +0.0000000e+000 +0.0000000e+000 
+1.4628500e+003 +8.2694656e+001 +1.5000000e+002 +1.5000000e+002 +1.5000000e+002 +3.9856467e-001 +3.9861000e-001 +3.5952705e-001 +8.7272309e-002 +8.7272309e-002 +8.7272309e-002 +0.0000000e+000 +0.0000000e+000 +0.0000000e+000 +9.8306078e-001 +9.8306078e-001 +9.8306078e-001 +0.0000000e+000 +0.0000000e+000 +0.0000000e+000 +4.8481370e-003 +4.8481370e-003 +4.8481370e-003 +0.0000000e+000 +1.0000020e+005 +0.0000000e+000 +1.0000000e+003 +0.0000000e+000 +0.0000000e+000 
+1.4629440e+003 +8.2794688e+001 +1.5000002e+002 +1.5000003e+002 +1.5000003e+002 +4.9404323e-001 +4.9412924e-001 +4.2181668e-001 +8.7279268e-002 +8.7279275e-002 +8.7279275e-002 +0.0000000e+000 +0.0000000e+000 +0.0000000e+000 +9.8306078e-001 +9.8306078e-001 +9.8306078e-001 +0.0000000e+000 +0.0000000e+000 +0.0000000e+000 +4.8481370e-003 +4.8481370e-003 +4.8481370e-003 +0.0000000e+000 +1.0000045e+005 +0.0000000e+000 +1.0000000e+003 +0.0000000e+000 +0.0000000e+000 
+1.4630380e+003 +8.2894720e+001 +1.5000005e+002 +1.5000006e+002 +1.5000006e+002 +6.0285085e-001 +6.0296017e-001 +4.9591675e-001 +8.7288924e-002 +8.7288931e-002 +8.7288938e-002 +0.0000000e+000 +0.0000000e+000 +0.0000000e+000 +9.8306078e-001 +9.8306078e-001 +9.8306078e-001 +0.0000000e+000 +0.0000000e+000 +0.0000000e+000 +4.8481370e-003 +4.8481370e-003 +4.8481370e-003 +0.0000000e+000 +1.0000080e+005 +0.0000000e+000 +1.0000000e+003 +0.0000000e+000 +0.0000000e+000 
+1.4631310e+003 +8.2994752e+001 +1.5000011e+002 +1.5000014e+002 +1.5000011e+002 +7.1817845e-001 +7.1833646e-001 +5.7729286e-001 +8.7301269e-002 +8.7301269e-002 +8.7301292e-002 +0.0000000e+000 +0.0000000e+000 +0.0000000e+000 +9.8306078e-001 +9.8306078e-001 +9.8306078e-001 +0.0000000e+000 +0.0000000e+000 +0.0000000e+000 +4.8481370e-003 +4.8481370e-003 +4.8481370e-003 +0.0000000e+000 +1.0000126e+005 +0.0000000e+000 +1.0000000e+003 +0.0000000e+000 +0.0000000e+000 
+1.4632410e+003 +8.3094912e+001 +1.5000021e+002 +1.5000023e+002 +1.5000018e+002 +8.3852893e-001 +8.3871776e-001 +6.6331941e-001 +8.7316312e-002 +8.7316312e-002 +8.7316334e-002 +0.0000000e+000 +0.0000000e+000 +0.0000000e+000 +9.8306078e-001 +9.8306078e-001 +9.8306078e-001 +0.0000000e+000 +0.0000000e+000 +0.0000000e+000 +4.8481370e-003 +4.8481370e-003 +4.8481370e-003 +0.0000000e+000 +1.0000180e+005 +0.0000000e+000 +1.0000000e+003 +0.0000000e+000 +0.0000000e+000 
+1.4633340e+003 +8.3194816e+001 +1.5000037e+002 +1.5000040e+002 +1.5000029e+002 +9.6165794e-001 +9.6189922e-001 +7.5234795e-001 +8.7334022e-002 +8.7334022e-002 +8.7334059e-002 +0.0000000e+000 +0.0000000e+000 +0.0000000e+000 +9.8306078e-001 +9.8306078e-001 +9.8306078e-001 +0.0000000e+000 +0.0000000e+000 +0.0000000e+000 +4.8481370e-003 +4.8481370e-003 +4.8481370e-003 +0.0000000e+000 +1.0000246e+005 +0.0000000e+000 +1.0000000e+003 +0.0000000e+000 +0.0000000e+000 
+1.4634440e+003 +8.3294848e+001 +1.5000063e+002 +1.5000063e+002 +1.5000044e+002 +1.0863104e+000 +1.0865673e+000 +8.4345448e-001 +8.7354437e-002 +8.7354437e-002 +8.7354474e-002 +0.0000000e+000 +0.0000000e+000 +0.0000000e+000 +9.8306078e-001 +9.8306078e-001 +9.8306078e-001 +0.0000000e+000 +0.0000000e+000 +0.0000000e+000 +4.8481370e-003 +4.8481370e-003 +4.8481370e-003 +0.0000000e+000 +1.0000321e+005 +0.0000000e+000 +1.0000000e+003 +0.0000000e+000 +0.0000000e+000 
+1.4635380e+003 +8.3394880e+001 +1.5000096e+002 +1.5000098e+002 +1.5000067e+002 +1.2124112e+000 +1.2127031e+000 +9.3599629e-001 +8.7377518e-002 +8.7377518e-002 +8.7377571e-002 +0.0000000e+000 +0.0000000e+000 +0.0000000e+000 +9.8306078e-001 +9.8306078e-001 +9.8306078e-001 +0.0000000e+000 +0.0000000e+000 +0.0000000e+000 +4.8481370e-003 +4.8481370e-003 +4.8481370e-003 +0.0000000e+000 +1.0000406e+005 +0.0000000e+000 +1.0000000e+003 +0.0000000e+000 +0.0000000e+000 
+1.4636470e+003 +8.3494912e+001 +1.5000142e+002 +1.5000145e+002 +1.5000096e+002 +1.3390729e+000 +1.3393872e+000 +1.0296613e+000 +8.7403297e-002 +8.7403305e-002 +8.7403364e-002 +0.0000000e+000 +0.0000000e+000 +0.0000000e+000 +9.8306078e-001 +9.8306078e-001 +9.8306078e-001 +0.0000000e+000 +0.0000000e+000 +0.0000000e+000 +4.8481370e-003 +4.8481370e-003 +4.8481370e-003 +0.0000000e+000 +1.0000502e+005 +0.0000000e+000 +1.0000000e+003 +0.0000000e+000 +0.0000000e+000 
+1.4637410e+003 +8.3594944e+001 +1.5000206e+002 +1.5000208e+002 +1.5000134e+002 +1.4661361e+000 +1.4665104e+000 +1.1241729e+000 +8.7431759e-002 +8.7431766e-002 +8.7431841e-002 +0.0000000e+000 +0.0000000e+000 +0.0000000e+000 +9.8306078e-001 +9.8306078e-001 +9.8306078e-001 +0.0000000e+000 +0.0000000e+000 +0.0000000e+000 +4.8481370e-003 +4.8481370e-003 +4.8481370e-003 +0.0000000e+000 +1.0000607e+005 +0.0000000e+000 +1.0000000e+003 +0.0000000e+000 +0.0000000e+000 
+1.4638340e+003 +8.3694976e+001 +1.5000288e+002 +1.5000290e+002 +1.5000185e+002 +1.5935934e+000 +1.5940226e+000 +1.2192327e+000 +8.7462880e-002 +8.7462880e-002 +8.7462977e-002 +0.0000000e+000 +0.0000000e+000 +0.0000000e+000 +9.8306078e-001 +9.8306078e-001 +9.8306078e-001 +0.0000000e+000 +0.0000000e+000 +0.0000000e+000 +4.8481370e-003 +4.8481370e-003 +4.8481370e-003 +0.0000000e+000 +1.0000722e+005 +0.0000000e+000 +1.0000000e+003 +0.0000000e+000 +0.0000000e+000 
+1.4639280e+003 +8.3795008e+001 +1.5000392e+002 +1.5000397e+002 +1.5000249e+002 +1.7218730e+000 +1.7223322e+000 +1.3148057e+000 +8.7496690e-002 +8.7496690e-002 +8.7496795e-002 +0.0000000e+000 +0.0000000e+000 +0.0000000e+000 +9.8306078e-001 +9.8306078e-001 +9.8306078e-001 +0.0000000e+000 +0.0000000e+000 +0.0000000e+000 +4.8481370e-003 +4.8481370e-003 +4.8481370e-003 +0.0000000e+000 +1.0000847e+005 +0.0000000e+000 +1.0000000e+003 +0.0000000e+000 +0.0000000e+000 
+1.4640380e+003 +8.3894976e+001 +1.5000525e+002 +1.5000529e+002 +1.5000327e+002 +1.8506440e+000 +1.8511065e+000 +1.4106696e+000 +8.7533154e-002 +8.7533161e-002 +8.7533273e-002 +0.0000000e+000 +0.0000000e+000 +0.0000000e+000 +9.8306078e-001 +9.8306078e-001 +9.8306078e-001 +0.0000000e+000 +0.0000000e+000 +0.0000000e+000 +4.8481370e-003 +4.8481370e-003 +4.8481370e-003 +0.0000000e+000 +1.0000982e+005 +0.0000000e+000 +1.0000000e+003 +0.0000000e+000 +0.0000000e+000 
+1.4641310e+003 +8.3995008e+001 +1.5000690e+002 +1.5000694e+002 +1.5000424e+002 +1.9795319e+000 +1.9800059e+000 +1.5069222e+000 +8.7572306e-002 +8.7572314e-002 +8.7572441e-002 +0.0000000e+000 +0.0000000e+000 +0.0000000e+000 +9.8306078e-001 +9.8306078e-001 +9.8306078e-001 +0.0000000e+000 +0.0000000e+000 +0.0000000e+000 +4.8481370e-003 +4.8481370e-003 +4.8481370e-003 +0.0000000e+000 +1.0001127e+005 +0.0000000e+000 +1.0000000e+003 +0.0000000e+000 +0.0000000e+000 
+1.4642410e+003 +8.4095104e+001 +1.5000891e+002 +1.5000903e+002 +1.5000543e+002 +2.1084023e+000 +2.1088955e+000 +1.6034334e+000 +8.7614119e-002 +8.7614134e-002 +8.7614276e-002 +0.0000000e+000 +0.0000000e+000 +0.0000000e+000 +9.8306078e-001 +9.8306078e-001 +9.8306078e-001 +0.0000000e+000 +0.0000000e+000 +0.0000000e+000 +4.8481370e-003 +4.8481370e-003 +4.8481370e-003 +0.0000000e+000 +1.0001283e+005 +0.0000000e+000 +1.0000000e+003 +0.0000000e+000 +0.0000000e+000 
+1.4643340e+003 +8.4195072e+001 +1.5001132e+002 +1.5001146e+002 +1.5000685e+002 +2.2373629e+000 +2.2378979e+000 +1.7001275e+000 +8.7658577e-002 +8.7658584e-002 +8.7658748e-002 +0.0000000e+000 +0.0000000e+000 +0.0000000e+000 +9.8306078e-001 +9.8306078e-001 +9.8306078e-001 +0.0000000e+000 +0.0000000e+000 +0.0000000e+000 +4.8481370e-003 +4.8481370e-003 +4.8481370e-003 +0.0000000e+000 +1.0001448e+005 +0.0000000e+000 +1.0000000e+003 +0.0000000e+000 +0.0000000e+000 
+1.4644440e+003 +8.4295296e+001 +1.5001421e+002 +1.5001436e+002 +1.5000856e+002 +2.3663626e+000 +2.3669174e+000 +1.7970358e+000 +8.7705716e-002 +8.7705724e-002 +8.7705903e-002 +0.0000000e+000 +0.0000000e+000 +0.0000000e+000 +9.8306078e-001 +9.8306078e-001 +9.8306078e-001 +0.0000000e+000 +0.0000000e+000 +0.0000000e+000 +4.8481370e-003 +4.8481370e-003 +4.8481370e-003 +0.0000000e+000 +1.0001623e+005 +0.0000000e+000 +1.0000000e+003 +0.0000000e+000 +0.0000000e+000 
+1.4645380e+003 +8.4395136e+001 +1.5001762e+002 +1.5001778e+002 +1.5001056e+002 +2.4959726e+000 +2.4965634e+000 +1.8940474e+000 +8.7755479e-002 +8.7755479e-002 +8.7755680e-002 +0.0000000e+000 +0.0000000e+000 +0.0000000e+000 +9.8306078e-001 +9.8306078e-001 +9.8306078e-001 +0.0000000e+000 +0.0000000e+000 +0.0000000e+000 +4.8481370e-003 +4.8481370e-003 +4.8481370e-003 +0.0000000e+000 +1.0001808e+005 +0.0000000e+000 +1.0000000e+003 +0.0000000e+000 +0.0000000e+000 
+1.4646470e+003 +8.4495104e+001 +1.5002164e+002 +1.5002179e+002 +1.5001289e+002 +2.6249797e+000 +2.6256046e+000 +1.9912486e+000 +8.7807916e-002 +8.7807916e-002 +8.7808140e-002 +0.0000000e+000 +0.0000000e+000 +0.0000000e+000 +9.8306078e-001 +9.8306078e-001 +9.8306078e-001 +0.0000000e+000 +0.0000000e+000 +0.0000000e+000 +4.8481370e-003 +4.8481370e-003 +4.8481370e-003 +0.0000000e+000 +1.0002003e+005 +0.0000000e+000 +1.0000000e+003 +0.0000000e+000 +0.0000000e+000 
+1.4647410e+003 +8.4595136e+001 +1.5002628e+002 +1.5002646e+002 +1.5001559e+002 +2.7547731e+000 +2.7554126e+000 +2.0885379e+000 +8.7862998e-002 +8.7862998e-002 +8.7863237e-002 +0.0000000e+000 +0.0000000e+000 +0.0000000e+000 +9.8306078e-001 +9.8306078e-001 +9.8306078e-001 +0.0000000e+000 +0.0000000e+000 +0.0000000e+000 +4.8481370e-003 +4.8481370e-003 +4.8481370e-003 +0.0000000e+000 +1.0002209e+005 +0.0000000e+000 +1.0000000e+003 +0.0000000e+000 +0.0000000e+000 
+1.4648350e+003 +8.4695168e+001 +1.5003165e+002 +1.5003183e+002 +1.5001872e+002 +2.8850379e+000 +2.8857205e+000 +2.1858964e+000 +8.7920681e-002 +8.7920688e-002 +8.7920941e-002 +0.0000000e+000 +0.0000000e+000 +0.0000000e+000 +9.8306078e-001 +9.8306078e-001 +9.8306078e-001 +0.0000000e+000 +0.0000000e+000 +0.0000000e+000 +4.8481370e-003 +4.8481370e-003 +4.8481370e-003 +0.0000000e+000 +1.0002423e+005 +0.0000000e+000 +1.0000000e+003 +0.0000000e+000 +0.0000000e+000 
+1.4649440e+003 +8.4795136e+001 +1.5003783e+002 +1.5003801e+002 +1.5002229e+002 +3.0146792e+000 +3.0154147e+000 +2.2834227e+000 +8.7981038e-002 +8.7981038e-002 +8.7981328e-002 +0.0000000e+000 +0.0000000e+000 +0.0000000e+000 +9.8306078e-001 +9.8306078e-001 +9.8306078e-001 +0.0000000e+000 +0.0000000e+000 +0.0000000e+000 +4.8481370e-003 +4.8481370e-003 +4.8481370e-003 +0.0000000e+000 +1.0002648e+005 +0.0000000e+000 +1.0000000e+003 +0.0000000e+000 +0.0000000e+000 
+1.4650380e+003 +8.4895168e+001 +1.5004485e+002 +1.5004506e+002 +1.5002637e+002 +3.1445467e+000 +3.1453490e+000 +2.3809693e+000 +8.8043980e-002 +8.8043980e-002 +8.8044301e-002 +0.0000000e+000 +0.0000000e+000 +0.0000000e+000 +9.8306078e-001 +9.8306078e-001 +9.8306078e-001 +0.0000000e+000 +0.0000000e+000 +0.0000000e+000 +4.8481370e-003 +4.8481370e-003 +4.8481370e-003 +0.0000000e+000 +1.0002884e+005 +0.0000000e+000 +1.0000000e+003 +0.0000000e+000 +0.0000000e+000 
+1.4651310e+003 +8.4995136e+001 +1.5005283e+002 +1.5005305e+002 +1.5003098e+002 +3.2741337e+000 +3.2749665e+000 +2.4785960e+000 +8.8109575e-002 +8.8109583e-002 +8.8109925e-002 +0.0000000e+000 +0.0000000e+000 +0.0000000e+000 +9.8306078e-001 +9.8306078e-001 +9.8306078e-001 +0.0000000e+000 +0.0000000e+000 +0.0000000e+000 +4.8481370e-003 +4.8481370e-003 +4.8481370e-003 +0.0000000e+000 +1.0003129e+005 +0.0000000e+000 +1.0000000e+003 +0.0000000e+000 +0.0000000e+000 
+1.4652410e+003 +8.5095168e+001 +1.5006183e+002 +1.5006210e+002 +1.5003618e+002 +3.4044991e+000 +3.4053700e+000 +2.5762889e+000 +8.8177800e-002 +8.8177808e-002 +8.8178180e-002 +0.0000000e+000 +0.0000000e+000 +0.0000000e+000 +9.8306078e-001 +9.8306078e-001 +9.8306078e-001 +0.0000000e+000 +0.0000000e+000 +0.0000000e+000 +4.8481370e-003 +4.8481370e-003 +4.8481370e-003 +0.0000000e+000 +1.0003384e+005 +0.0000000e+000 +1.0000000e+003 +0.0000000e+000 +0.0000000e+000 
+1.4653340e+003 +8.5195136e+001 +1.5007195e+002 +1.5007233e+002 +1.5004201e+002 +3.5344863e+000 +3.5354006e+000 +2.6739800e+000 +8.8248581e-002 +8.8248588e-002 +8.8248990e-002 +0.0000000e+000 +0.0000000e+000 +0.0000000e+000 +9.8306078e-001 +9.8306078e-001 +9.8306078e-001 +0.0000000e+000 +0.0000000e+000 +0.0000000e+000 +4.8481370e-003 +4.8481370e-003 +4.8481370e-003 +0.0000000e+000 +1.0003649e+005 +0.0000000e+000 +1.0000000e+003 +0.0000000e+000 +0.0000000e+000 
+1.4654440e+003 +8.5295168e+001 +1.5008327e+002 +1.5008368e+002 +1.5004854e+002 +3.6650639e+000 +3.6660194e+000 +2.7717800e+000 +8.8322021e-002 +8.8322029e-002 +8.8322453e-002 +0.0000000e+000 +0.0000000e+000 +0.0000000e+000 +9.8306078e-001 +9.8306078e-001 +9.8306078e-001 +0.0000000e+000 +0.0000000e+000 +0.0000000e+000 +4.8481370e-003 +4.8481370e-003 +4.8481370e-003 +0.0000000e+000 +1.0003924e+005 +0.0000000e+000 +1.0000000e+003 +0.0000000e+000 +0.0000000e+000 
+1.4655380e+003 +8.5395200e+001 +1.5009587e+002 +1.5009631e+002 +1.5005579e+002 +3.7950687e+000 +3.7960799e+000 +2.8695743e+000 +8.8398002e-002 +8.8398010e-002 +8.8398471e-002 +0.0000000e+000 +0.0000000e+000 +0.0000000e+000 +9.8306078e-001 +9.8306078e-001 +9.8306078e-001 +0.0000000e+000 +0.0000000e+000 +0.0000000e+000 +4.8481370e-003 +4.8481370e-003 +4.8481370e-003 +0.0000000e+000 +1.0004209e+005 +0.0000000e+000 +1.0000000e+003 +0.0000000e+000 +0.0000000e+000 
+1.4656470e+003 +8.5495168e+001 +1.5010986e+002 +1.5011034e+002 +1.5006384e+002 +3.9254746e+000 +3.9265213e+000 +2.9674287e+000 +8.8476621e-002 +8.8476621e-002 +8.8477120e-002 +0.0000000e+000 +0.0000000e+000 +0.0000000e+000 +9.8306078e-001 +9.8306078e-001 +9.8306078e-001 +0.0000000e+000 +0.0000000e+000 +0.0000000e+000 +4.8481370e-003 +4.8481370e-003 +4.8481370e-003 +0.0000000e+000 +1.0004504e+005 +0.0000000e+000 +1.0000000e+003 +0.0000000e+000 +0.0000000e+000 
+1.4657410e+003 +8.5595200e+001 +1.5012535e+002 +1.5012584e+002 +1.5007275e+002 +4.0560803e+000 +4.0571432e+000 +3.0652983e+000 +8.8557824e-002 +8.8557824e-002 +8.8558361e-002 +0.0000000e+000 +0.0000000e+000 +0.0000000e+000 +9.8306078e-001 +9.8306078e-001 +9.8306078e-001 +0.0000000e+000 +0.0000000e+000 +0.0000000e+000 +4.8481370e-003 +4.8481370e-003 +4.8481370e-003 +0.0000000e+000 +1.0004809e+005 +0.0000000e+000 +1.0000000e+003 +0.0000000e+000 +0.0000000e+000 
+1.4658340e+003 +8.5695168e+001 +1.5014241e+002 +1.5014294e+002 +1.5008255e+002 +4.1858163e+000 +4.1869164e+000 +3.1631753e+000 +8.8641562e-002 +8.8641554e-002 +8.8642120e-002 +0.0000000e+000 +0.0000000e+000 +0.0000000e+000 +9.8306078e-001 +9.8306078e-001 +9.8306078e-001 +0.0000000e+000 +0.0000000e+000 +0.0000000e+000 +4.8481370e-003 +4.8481370e-003 +4.8481370e-003 +0.0000000e+000 +1.0005124e+005 +0.0000000e+000 +1.0000000e+003 +0.0000000e+000 +0.0000000e+000 
+1.4659440e+003 +8.5795200e+001 +1.5016116e+002 +1.5016174e+002 +1.5009332e+002 +4.3165150e+000 +4.3176489e+000 +3.2611251e+000 +8.8727914e-002 +8.8727899e-002 +8.8728502e-002 +0.0000000e+000 +0.0000000e+000 +0.0000000e+000 +9.8306078e-001 +9.8306078e-001 +9.8306078e-001 +0.0000000e+000 +0.0000000e+000 +0.0000000e+000 +4.8481370e-003 +4.8481370e-003 +4.8481370e-003 +0.0000000e+000 +1.0005450e+005 +0.0000000e+000 +1.0000000e+003 +0.0000000e+000 +0.0000000e+000 
+1.4660380e+003 +8.5895232e+001 +1.5018172e+002 +1.5018231e+002 +1.5010512e+002 +4.4477544e+000 +4.4489222e+000 +3.3590426e+000 +8.8816777e-002 +8.8816762e-002 +8.8817395e-002 +0.0000000e+000 +0.0000000e+000 +0.0000000e+000 +9.8306078e-001 +9.8306078e-001 +9.8306078e-001 +0.0000000e+000 +0.0000000e+000 +0.0000000e+000 +4.8481370e-003 +4.8481370e-003 +4.8481370e-003 +0.0000000e+000 +1.0005784e+005 +0.0000000e+000 +1.0000000e+003 +0.0000000e+000 +0.0000000e+000 
+1.4661310e+003 +8.5995200e+001 +1.5020419e+002 +1.5020494e+002 +1.5011801e+002 +4.5790339e+000 +4.5802360e+000 +3.4570503e+000 +8.8908248e-002 +8.8908240e-002 +8.8908903e-002 +0.0000000e+000 +0.0000000e+000 +0.0000000e+000 +9.8306078e-001 +9.8306078e-001 +9.8306078e-001 +0.0000000e+000 +0.0000000e+000 +0.0000000e+000 +4.8481370e-003 +4.8481370e-003 +4.8481370e-003 +0.0000000e+000 +1.0006130e+005 +0.0000000e+000 +1.0000000e+003 +0.0000000e+000 +0.0000000e+000 
+1.4662410e+003 +8.6095232e+001 +1.5022868e+002 +1.5022948e+002 +1.5013206e+002 +4.7088118e+000 +4.7100344e+000 +3.5549946e+000 +8.9002199e-002 +8.9002199e-002 +8.9002900e-002 +0.0000000e+000 +0.0000000e+000 +0.0000000e+000 +9.8306078e-001 +9.8306078e-001 +9.8306078e-001 +0.0000000e+000 +0.0000000e+000 +0.0000000e+000 +4.8481370e-003 +4.8481370e-003 +4.8481370e-003 +0.0000000e+000 +1.0006484e+005 +0.0000000e+000 +1.0000000e+003 +0.0000000e+000 +0.0000000e+000 
+1.4663350e+003 +8.6195200e+001 +1.5025534e+002 +1.5025615e+002 +1.5014732e+002 +4.8396316e+000 +4.8408699e+000 +3.6530168e+000 +8.9098744e-002 +8.9098752e-002 +8.9099482e-002 +0.0000000e+000 +0.0000000e+000 +0.0000000e+000 +9.8306078e-001 +9.8306078e-001 +9.8306078e-001 +0.0000000e+000 +0.0000000e+000 +0.0000000e+000 +4.8481370e-003 +4.8481370e-003 +4.8481370e-003 +0.0000000e+000 +1.0006850e+005 +0.0000000e+000 +1.0000000e+003 +0.0000000e+000 +0.0000000e+000 
+1.4664440e+003 +8.6295232e+001 +5.6850746e+001 +5.8951889e+001 +1.2320331e+002 +1.4216284e+000 +1.4529510e+000 +3.0884607e+000 +6.9745384e-002 +6.9909029e-002 +8.9177057e-002 -1.5000653e-002 -1.3196062e-001 +2.9071234e-002 +6.8784285e-001 +6.8275177e-001 +7.9665923e-001 -5.7657664e-005 +1.3490349e-005 -6.3295590e-007 +4.8387591e-003 +4.8386757e-003 +4.8481328e-003 -1.6175752e+003 +5.7120750e+001 -5.3081006e+002 +1.3842338e+000 +0.0000000e+000 +0.0000000e+000 
+1.4665380e+003 +8.6395328e+001 +4.2405716e+001 +4.6950977e+001 +9.4792755e+001 +7.1901053e-001 +7.8457659e-001 +1.5992348e+000 +6.8391092e-002 +6.8144739e-002 +8.9276657e-002 +8.6777121e-002 -2.2658291e-001 -3.2212934e-001 +6.5906012e-001 +6.5705097e-001 +4.0706924e-001 -1.5658184e-004 +1.3823511e-005 -3.2217285e-006 +4.8347637e-003 +4.8386748e-003 +4.8481300e-003 -1.6576263e+003 +4.5120693e+001 -5.3021521e+002 +7.5038373e-001 +0.0000000e+000 +0.0000000e+000 
+1.4666470e+003 +8.6495232e+001 +4.2400116e+001 +4.6951092e+001 +9.4783875e+001 +7.3813295e-001 +8.0613285e-001 +1.6393278e+000 +6.8502545e-002 +6.8252012e-002 +8.9380831e-002 +8.6777121e-002 -2.2658291e-001 -3.2212934e-001 +6.5906012e-001 +6.5705097e-001 +4.0706924e-001 -1.5658184e-004 +1.3823511e-005 -3.2217285e-006 +4.8347637e-003 +4.8386748e-003 +4.8481300e-003 -1.7106672e+003 +4.5115982e+001 -5.3021521e+002 +7.5364405e-001 +0.0000000e+000 +0.0000000e+000 
+1.4667410e+003 +8.6595264e+001 +4.2394489e+001 +4.6951302e+001 +9.4775055e+001 +7.5750685e-001 +8.2797521e-001 +1.6794813e+000 +6.8617158e-002 +6.8362460e-002 +8.9487433e-002 +8.6777121e-002 -2.2658291e-001 -3.2212934e-001 +6.5906012e-001 +6.5705097e-001 +4.0706924e-001 -1.5658184e-004 +1.3823511e-005 -3.2217285e-006 +4.8347637e-003 +4.8386748e-003 +4.8481300e-003 -1.7636718e+003 +4.5111397e+001 -5.3021521e+002 +7.5688589e-001 +0.0000000e+000 +0.0000000e+000 
+1.4668350e+003 +8.6695232e+001 +4.2388844e+001 +4.6951611e+001 +9.4766296e+001 +7.7707624e-001 +8.5004050e-001 +1.7195992e+000 +6.8735063e-002 +6.8476215e-002 +8.9596592e-002 +8.6777121e-002 -2.2658291e-001 -3.2212934e-001 +6.5906012e-001 +6.5705097e-001 +4.0706924e-001 -1.5658184e-004 +1.3823511e-005 -3.2217285e-006 +4.8347637e-003 +4.8386748e-003 +4.8481300e-003 -1.8167086e+003 +4.5106934e+001 -5.3021521e+002 +7.6011783e-001 +0.0000000e+000 +0.0000000e+000 
+1.4669280e+003 +8.6795264e+001 +4.2383190e+001 +4.6952034e+001 +9.4757645e+001 +7.9681098e-001 +8.7228692e-001 +1.7597013e+000 +6.8856165e-002 +6.8593197e-002 +8.9708254e-002 +8.6777121e-002 -2.2658291e-001 -3.2212934e-001 +6.5906012e-001 +6.5705097e-001 +4.0706924e-001 -1.5658184e-004 +1.3823511e-005 -3.2217285e-006 +4.8347637e-003 +4.8386748e-003 +4.8481300e-003 -1.8697495e+003 +4.5102600e+001 -5.3021521e+002 +7.6333660e-001 +0.0000000e+000 +0.0000000e+000 
+1.4670380e+003 +8.6895232e+001 +4.2377548e+001 +4.6952579e+001 +9.4749107e+001 +8.1687880e-001 +8.9490336e-001 +1.7998070e+000 +6.8980373e-002 +6.8713307e-002 +8.9822330e-002 +8.6777121e-002 -2.2658291e-001 -3.2212934e-001 +6.5906012e-001 +6.5705097e-001 +4.0706924e-001 -1.5658184e-004 +1.3823511e-005 -3.2217285e-006 +4.8347637e-003 +4.8386748e-003 +4.8481300e-003 -1.9227540e+003 +4.5098396e+001 -5.3021521e+002 +7.6653743e-001 +0.0000000e+000 +0.0000000e+000 
+1.4671310e+003 +8.6995264e+001 +4.2371914e+001 +4.6953266e+001 +9.4740715e+001 +8.3722883e-001 +9.1783780e-001 +1.8400222e+000 +6.9107816e-002 +6.8836674e-002 +8.9938939e-002 +8.6777121e-002 -2.2658291e-001 -3.2212934e-001 +6.5906012e-001 +6.5705097e-001 +4.0706924e-001 -1.5658184e-004 +1.3823511e-005 -3.2217285e-006 +4.8347637e-003 +4.8386748e-003 +4.8481300e-003 -1.9757909e+003 +4.5094318e+001 -5.3021521e+002 +7.6972884e-001 +0.0000000e+000 +0.0000000e+000 
+1.4672410e+003 +8.7095296e+001 +4.2366310e+001 +4.6954102e+001 +9.4732491e+001 +8.5770404e-001 +9.4093055e-001 +1.8802874e+000 +6.9238335e-002 +6.8963125e-002 +9.0057932e-002 +8.6777121e-002 -2.2658291e-001 -3.2212934e-001 +6.5906012e-001 +6.5705097e-001 +4.0706924e-001 -1.5658184e-004 +1.3823511e-005 -3.2217285e-006 +4.8347637e-003 +4.8386748e-003 +4.8481300e-003 -2.0287954e+003 +4.5090374e+001 -5.3021521e+002 +7.7290320e-001 +0.0000000e+000 +0.0000000e+000 
+1.4673350e+003 +8.7195264e+001 +4.2360741e+001 +4.6955105e+001 +9.4724449e+001 +8.7842023e-001 +9.6420157e-001 +1.9206673e+000 +6.9372050e-002 +6.9092818e-002 +9.0179451e-002 +8.6777121e-002 -2.2658291e-001 -3.2212934e-001 +6.5906012e-001 +6.5705097e-001 +4.0706924e-001 -1.5658184e-004 +1.3823511e-005 -3.2217285e-006 +4.8347637e-003 +4.8386748e-003 +4.8481300e-003 -2.0818323e+003 +4.5086559e+001 -5.3021521e+002 +7.7606839e-001 +0.0000000e+000 +0.0000000e+000 
+1.4674440e+003 +8.7295296e+001 +7.5742402e+000 +6.7216053e+000 +2.2307604e+001 +1.1049489e-001 +1.0035837e-001 +3.1278479e-001 +6.7359120e-002 +6.5821178e-002 +8.9494564e-002 +5.6587279e-002 -1.0850832e-001 -1.2773059e-001 +6.4848608e-001 +6.4458281e-001 +9.2219695e-002 -3.0456805e-003 +1.3022200e-003 -1.6796190e-004 +3.9730435e-003 +4.4795983e-003 +4.8454111e-003 -2.1200530e+003 +1.3884970e+001 -5.3060376e+002 +2.0788595e-001 +0.0000000e+000 +0.0000000e+000 
+1.4675380e+003 +8.7395264e+001 +7.5228682e+000 +6.6408534e+000 +2.2287390e+001 +1.1435227e-001 +1.0244458e-001 +3.1932601e-001 +6.7409366e-002 +6.5849781e-002 +8.9607604e-002 +5.7645418e-002 -1.0808128e-001 -1.2840365e-001 +6.4844829e-001 +6.4457661e-001 +9.2112280e-002 -3.1091028e-003 +1.3626836e-003 -1.7087060e-004 +3.9508529e-003 +4.4617229e-003 +4.8453729e-003 -2.1730596e+003 +1.3882370e+001 -5.3060944e+002 +2.1607909e-001 +0.0000000e+000 +0.0000000e+000 
+1.4676470e+003 +8.7495296e+001 +7.5226507e+000 +6.6411152e+000 +2.2286766e+001 +1.2024340e-001 +1.0965197e-001 +3.2627630e-001 +6.7513414e-002 +6.5911233e-002 +8.9735948e-002 +5.7645418e-002 -1.0808128e-001 -1.2840365e-001 +6.4844829e-001 +6.4457661e-001 +9.2112280e-002 -3.1091028e-003 +1.3626836e-003 -1.7087060e-004 +3.9508529e-003 +4.4617229e-003 +4.8453729e-003 -2.2261360e+003 +1.3882043e+001 -5.3060944e+002 +2.2714095e-001 +0.0000000e+000 +0.0000000e+000 
+1.4677410e+003 +8.7595328e+001 +7.5224524e+000 +6.6413960e+000 +2.2286179e+001 +1.2684840e-001 +1.1801714e-001 +3.3334053e-001 +6.7620181e-002 +6.5974943e-002 +8.9866638e-002 +5.7645418e-002 -1.0808128e-001 -1.2840365e-001 +6.4844829e-001 +6.4457661e-001 +9.2112280e-002 -3.1091028e-003 +1.3626836e-003 -1.7087060e-004 +3.9508529e-003 +4.4617229e-003 +4.8453729e-003 -2.2791799e+003 +1.3881750e+001 -5.3060944e+002 +2.3767598e-001 +0.0000000e+000 +0.0000000e+000 
+1.4678350e+003 +8.7695296e+001 +7.5222754e+000 +6.6416998e+000 +2.2285627e+001 +1.3418704e-001 +1.2745626e-001 +3.4048095e-001 +6.7729793e-002 +6.6041008e-002 +8.9999855e-002 +5.7645418e-002 -1.0808128e-001 -1.2840365e-001 +6.4844829e-001 +6.4457661e-001 +9.2112280e-002 -3.1091028e-003 +1.3626836e-003 -1.7087060e-004 +3.9508529e-003 +4.4617229e-003 +4.8453729e-003 -2.3322603e+003 +1.3881496e+001 -5.3060944e+002 +2.4777704e-001 +0.0000000e+000 +0.0000000e+000 
+1.4679440e+003 +8.7795328e+001 +7.5221238e+000 +6.6420307e+000 +2.2285116e+001 +1.4217450e-001 +1.3776514e-001 +3.4767076e-001 +6.7842089e-002 +6.6109300e-002 +9.0135388e-002 +5.7645418e-002 -1.0808128e-001 -1.2840365e-001 +6.4844829e-001 +6.4457661e-001 +9.2112280e-002 -3.1091028e-003 +1.3626836e-003 -1.7087060e-004 +3.9508529e-003 +4.4617229e-003 +4.8453729e-003 -2.3853042e+003 +1.3881287e+001 -5.3060944e+002 +2.5746906e-001 +0.0000000e+000 +0.0000000e+000 
+1.4680380e+003 +8.7895296e+001 +7.5220017e+000 +6.6423960e+000 +2.2284649e+001 +1.5086481e-001 +1.4919178e-001 +3.5501248e-001 +6.7957193e-002 +6.6179916e-002 +9.0273403e-002 +5.7645418e-002 -1.0808128e-001 -1.2840365e-001 +6.4844829e-001 +6.4457661e-001 +9.2112280e-002 -3.1091028e-003 +1.3626836e-003 -1.7087060e-004 +3.9508529e-003 +4.4617229e-003 +4.8453729e-003 -2.4383806e+003 +1.3881122e+001 -5.3060944e+002 +2.6682046e-001 +0.0000000e+000 +0.0000000e+000 
+1.4681310e+003 +8.7995328e+001 +7.5219140e+000 +6.6428013e+000 +2.2284229e+001 +1.6021173e-001 +1.6131586e-001 +3.6239225e-001 +6.8075038e-002 +6.6252805e-002 +9.0413809e-002 +5.7645418e-002 -1.0808128e-001 -1.2840365e-001 +6.4844829e-001 +6.4457661e-001 +9.2112280e-002 -3.1091028e-003 +1.3626836e-003 -1.7087060e-004 +3.9508529e-003 +4.4617229e-003 +4.8453729e-003 -2.4914570e+003 +1.3881006e+001 -5.3060944e+002 +2.7585503e-001 +0.0000000e+000 +0.0000000e+000 
+1.4682410e+003 +8.8095360e+001 +7.5218663e+000 +6.6432548e+000 +2.2283861e+001 +1.7007667e-001 +1.7408131e-001 +3.6989456e-001 +6.8195522e-002 +6.6327922e-002 +9.0556502e-002 +5.7645418e-002 -1.0808128e-001 -1.2840365e-001 +6.4844829e-001 +6.4457661e-001 +9.2112280e-002 -3.1091028e-003 +1.3626836e-003 -1.7087060e-004 +3.9508529e-003 +4.4617229e-003 +4.8453729e-003 -2.5445010e+003 +1.3880944e+001 -5.3060944e+002 +2.8459245e-001 +0.0000000e+000 +0.0000000e+000 
+1.4683350e+003 +8.8195328e+001 +7.5218654e+000 +6.6437664e+000 +2.2283546e+001 +1.8055411e-001 +1.8784042e-001 +3.7750661e-001 +6.8318792e-002 +6.6405363e-002 +9.0701669e-002 +5.7645418e-002 -1.0808128e-001 -1.2840365e-001 +6.4844829e-001 +6.4457661e-001 +9.2112280e-002 -3.1091028e-003 +1.3626836e-003 -1.7087060e-004 +3.9508529e-003 +4.4617229e-003 +4.8453729e-003 -2.5975813e+003 +1.3880939e+001 -5.3060944e+002 +2.9308096e-001 +0.0000000e+000 +0.0000000e+000 
+1.4684440e+003 +8.8295360e+001 +5.8684216e+000 +5.0915875e+000 +1.7907307e+001 +9.7370289e-002 +9.6556611e-002 +2.6710260e-001 +6.6993579e-002 +6.5571807e-002 +9.0063721e-002 +5.1622555e-002 -1.0509665e-001 -9.6360639e-002 +6.4792740e-001 +6.4326793e-001 +7.3202714e-002 -3.2525824e-003 +1.8716818e-003 -1.9108446e-004 +3.0799916e-003 +3.5422975e-003 +4.8443484e-003 -2.6506123e+003 +1.1279377e+001 -5.3061163e+002 +1.8241091e-001 +0.0000000e+000 +0.0000000e+000 
+1.4685380e+003 +8.8395328e+001 +5.8481374e+000 +5.0417323e+000 +1.7899870e+001 +1.0119058e-001 +1.0065506e-001 +2.7195570e-001 +6.7010745e-002 +6.5615252e-002 +9.0209261e-002 +5.2199919e-002 -1.0580704e-001 -9.6690595e-002 +6.4788997e-001 +6.4321083e-001 +7.3094472e-002 -3.2753767e-003 +1.9109247e-003 -1.9198714e-004 +3.0677021e-003 +3.5105303e-003 +4.8443363e-003 -2.7036746e+003 +1.1277786e+001 -5.3061469e+002 +1.9185282e-001 +0.0000000e+000 +0.0000000e+000 
+1.4686470e+003 +8.8495360e+001 +5.8480515e+000 +5.0419679e+000 +1.7899523e+001 +1.0689284e-001 +1.0890248e-001 +2.7729258e-001 +6.7085199e-002 +6.5660559e-002 +9.0360366e-002 +5.2199919e-002 -1.0580704e-001 -9.6690595e-002 +6.4788997e-001 +6.4321083e-001 +7.3094472e-002 -3.2753767e-003 +1.9109247e-003 -1.9198714e-004 +3.0677021e-003 +3.5105303e-003 +4.8443363e-003 -2.7567554e+003 +1.1277626e+001 -5.3061469e+002 +2.0423295e-001 +0.0000000e+000 +0.0000000e+000 
+1.4687410e+003 +8.8595392e+001 +5.8479862e+000 +5.0422277e+000 +1.7899212e+001 +1.1291436e-001 +1.1766243e-001 +2.8277487e-001 +6.7161366e-002 +6.5707229e-002 +9.0513699e-002 +5.2199919e-002 -1.0580704e-001 -9.6690595e-002 +6.4788997e-001 +6.4321083e-001 +7.3094472e-002 -3.2753767e-003 +1.9109247e-003 -1.9198714e-004 +3.0677021e-003 +3.5105303e-003 +4.8443363e-003 -2.8097998e+003 +1.1277501e+001 -5.3061469e+002 +2.1588875e-001 +0.0000000e+000 +0.0000000e+000 
+1.4688350e+003 +8.8695360e+001 +5.8479452e+000 +5.0425196e+000 +1.7898941e+001 +1.1949730e-001 +1.2695713e-001 +2.8828210e-001 +6.7239322e-002 +6.5755330e-002 +9.0669438e-002 +5.2199919e-002 -1.0580704e-001 -9.6690595e-002 +6.4788997e-001 +6.4321083e-001 +7.3094472e-002 -3.2753767e-003 +1.9109247e-003 -1.9198714e-004 +3.0677021e-003 +3.5105303e-003 +4.8443363e-003 -2.8628767e+003 +1.1277416e+001 -5.3061469e+002 +2.2695990e-001 +0.0000000e+000 +0.0000000e+000 
+1.4689440e+003 +8.8795392e+001 +5.8479323e+000 +5.0428472e+000 +1.7898710e+001 +1.2653592e-001 +1.3679259e-001 +2.9386604e-001 +6.7318976e-002 +6.5804802e-002 +9.0827383e-002 +5.2199919e-002 -1.0580704e-001 -9.6690595e-002 +6.4788997e-001 +6.4321083e-001 +7.3094472e-002 -3.2753767e-003 +1.9109247e-003 -1.9198714e-004 +3.0677021e-003 +3.5105303e-003 +4.8443363e-003 -2.9159211e+003 +1.1277373e+001 -5.3061469e+002 +2.3750296e-001 +0.0000000e+000 +0.0000000e+000 
+1.4690380e+003 +8.8895360e+001 +5.8479509e+000 +5.0432200e+000 +1.7898525e+001 +1.3392240e-001 +1.4700833e-001 +2.9953361e-001 +6.7400426e-002 +6.5855689e-002 +9.0987720e-002 +5.2199919e-002 -1.0580704e-001 -9.6690595e-002 +6.4788997e-001 +6.4321083e-001 +7.3094472e-002 -3.2753767e-003 +1.9109247e-003 -1.9198714e-004 +3.0677021e-003 +3.5105303e-003 +4.8443363e-003 -2.9689980e+003 +1.1277379e+001 -5.3061469e+002 +2.4760957e-001 +0.0000000e+000 +0.0000000e+000 
+1.4691310e+003 +8.8995392e+001 +5.8480072e+000 +5.0436454e+000 +1.7898390e+001 +1.4179370e-001 +1.5786023e-001 +3.0526963e-001 +6.7483604e-002 +6.5907970e-002 +9.1150343e-002 +5.2199919e-002 -1.0580704e-001 -9.6690595e-002 +6.4788997e-001 +6.4321083e-001 +7.3094472e-002 -3.2753767e-003 +1.9109247e-003 -1.9198714e-004 +3.0677021e-003 +3.5105303e-003 +4.8443363e-003 -3.0220789e+003 +1.1277437e+001 -5.3061469e+002 +2.5732100e-001 +0.0000000e+000 +0.0000000e+000 
+1.4692410e+003 +8.9095424e+001 +5.8481059e+000 +5.0441322e+000 +1.7898302e+001 +1.5020865e-001 +1.6917750e-001 +3.1101775e-001 +6.7568451e-002 +6.5961599e-002 +9.1315128e-002 +5.2199919e-002 -1.0580704e-001 -9.6690595e-002 +6.4788997e-001 +6.4321083e-001 +7.3094472e-002 -3.2753767e-003 +1.9109247e-003 -1.9198714e-004 +3.0677021e-003 +3.5105303e-003 +4.8443363e-003 -3.0751233e+003 +1.1277551e+001 -5.3061469e+002 +2.6666635e-001 +0.0000000e+000 +0.0000000e+000 
+1.4693350e+003 +8.9195392e+001 +5.8482533e+000 +5.0446930e+000 +1.7898268e+001 +1.5901330e-001 +1.8093356e-001 +3.1683779e-001 +6.7655064e-002 +6.6016644e-002 +9.1482282e-002 +5.2199919e-002 -1.0580704e-001 -9.6690595e-002 +6.4788997e-001 +6.4321083e-001 +7.3094472e-002 -3.2753767e-003 +1.9109247e-003 -1.9198714e-004 +3.0677021e-003 +3.5105303e-003 +4.8443363e-003 -3.1282002e+003 +1.1277726e+001 -5.3061469e+002 +2.7570599e-001 +0.0000000e+000 +0.0000000e+000 
+1.4694440e+003 +8.9295424e+001 +5.0036855e+000 +4.3021078e+000 +1.5494336e+001 +9.2257038e-002 +9.4890304e-002 +2.4338186e-001 +6.6784777e-002 +6.5625459e-002 +9.1014907e-002 +4.0844504e-002 -7.5229801e-002 -8.6311869e-002 +6.4772421e-001 +6.4212751e-001 +6.1605860e-002 -2.1905401e-003 +9.3036809e-004 -2.3747649e-004 +2.3947291e-003 +2.6835431e-003 +4.8434581e-003 -3.1813511e+003 +9.7993288e+000 -5.3065601e+002 +1.6988236e-001 +0.0000000e+000 +0.0000000e+000 
+1.4695380e+003 +8.9395392e+001 +4.9923258e+000 +4.2688522e+000 +1.5490204e+001 +9.5752686e-002 +9.8014049e-002 +2.4756622e-001 +6.6797085e-002 +6.5663531e-002 +9.1185808e-002 +3.7728377e-002 -7.0777342e-002 -8.4786393e-002 +6.4769286e-001 +6.4206296e-001 +6.1526887e-002 -2.0849623e-003 +7.4740604e-004 -2.3313765e-004 +2.3849790e-003 +2.6573439e-003 +4.8434502e-003 -3.2344973e+003 +9.7982187e+000 -5.3063690e+002 +1.7954741e-001 +0.0000000e+000 +0.0000000e+000 
+1.4696470e+003 +8.9495424e+001 +4.9923134e+000 +4.2691002e+000 +1.5490053e+001 +1.0061726e-001 +1.0464798e-001 +2.5214431e-001 +6.6849440e-002 +6.5702513e-002 +9.1358937e-002 +3.7728377e-002 -7.0777342e-002 -8.4786393e-002 +6.4769286e-001 +6.4206296e-001 +6.1526887e-002 -2.0849623e-003 +7.4740604e-004 -2.3313765e-004 +2.3849790e-003 +2.6573439e-003 +4.8434502e-003 -3.2875764e+003 +9.7981758e+000 -5.3063690e+002 +1.9271772e-001 +0.0000000e+000 +0.0000000e+000 
+1.4697410e+003 +8.9595392e+001 +4.9923239e+000 +4.2693768e+000 +1.5489942e+001 +1.0586464e-001 +1.1163960e-001 +2.5671709e-001 +6.6902779e-002 +6.5742314e-002 +9.1534182e-002 +3.7728377e-002 -7.0777342e-002 -8.4786393e-002 +6.4769286e-001 +6.4206296e-001 +6.1526887e-002 -2.0849623e-003 +7.4740604e-004 -2.3313765e-004 +2.3849790e-003 +2.6573439e-003 +4.8434502e-003 -3.3406230e+003 +9.7981691e+000 -5.3063690e+002 +2.0502920e-001 +0.0000000e+000 +0.0000000e+000 
+1.4698350e+003 +8.9695552e+001 +4.9923592e+000 +4.2696867e+000 +1.5489872e+001 +1.1143003e-001 +1.1900960e-001 +2.6136875e-001 +6.6957161e-002 +6.5782994e-002 +9.1711752e-002 +3.7728377e-002 -7.0777342e-002 -8.4786393e-002 +6.4769286e-001 +6.4206296e-001 +6.1526887e-002 -2.0849623e-003 +7.4740604e-004 -2.3313765e-004 +2.3849790e-003 +2.6573439e-003 +4.8434502e-003 -3.3937021e+003 +9.7982025e+000 -5.3063690e+002 +2.1665600e-001 +0.0000000e+000 +0.0000000e+000 
+1.4699440e+003 +8.9795456e+001 +4.9924231e+000 +4.2700343e+000 +1.5489845e+001 +1.1741018e-001 +1.2685792e-001 +2.6604521e-001 +6.7012519e-002 +6.5824486e-002 +9.1891401e-002 +3.7728377e-002 -7.0777342e-002 -8.4786393e-002 +6.4769286e-001 +6.4206296e-001 +6.1526887e-002 -2.0849623e-003 +7.4740604e-004 -2.3313765e-004 +2.3849790e-003 +2.6573439e-003 +4.8434502e-003 -3.4467488e+003 +9.7982807e+000 -5.3063690e+002 +2.2767670e-001 +0.0000000e+000 +0.0000000e+000 
+1.4700380e+003 +8.9895424e+001 +4.9925199e+000 +4.2704277e+000 +1.5489865e+001 +1.2355825e-001 +1.3487071e-001 +2.7081108e-001 +6.7068927e-002 +6.5866843e-002 +9.2073359e-002 +3.7728377e-002 -7.0777342e-002 -8.4786393e-002 +6.4769286e-001 +6.4206296e-001 +6.1526887e-002 -2.0849623e-003 +7.4740604e-004 -2.3313765e-004 +2.3849790e-003 +2.6573439e-003 +4.8434502e-003 -3.4998318e+003 +9.7984104e+000 -5.3063690e+002 +2.3820215e-001 +0.0000000e+000 +0.0000000e+000 
+1.4701310e+003 +8.9995456e+001 +4.9926543e+000 +4.2708731e+000 +1.5489934e+001 +1.3005038e-001 +1.4314957e-001 +2.7558768e-001 +6.7126341e-002 +6.5910049e-002 +9.2257470e-002 +3.7728377e-002 -7.0777342e-002 -8.4786393e-002 +6.4769286e-001 +6.4206296e-001 +6.1526887e-002 -2.0849623e-003 +7.4740604e-004 -2.3313765e-004 +2.3849790e-003 +2.6573439e-003 +4.8434502e-003 -3.5529109e+003 +9.7985945e+000 -5.3063690e+002 +2.4828030e-001 +0.0000000e+000 +0.0000000e+000 
+1.4702410e+003 +9.0095488e+001 +4.9928293e+000 +4.2713790e+000 +1.5490053e+001 +1.3687706e-001 +1.5189271e-001 +2.8042942e-001 +6.7184724e-002 +6.5954059e-002 +9.2443638e-002 +3.7728377e-002 -7.0777342e-002 -8.4786393e-002 +6.4769286e-001 +6.4206296e-001 +6.1526887e-002 -2.0849623e-003 +7.4740604e-004 -2.3313765e-004 +2.3849790e-003 +2.6573439e-003 +4.8434502e-003 -3.6059575e+003 +9.7988396e+000 -5.3063690e+002 +2.5795341e-001 +0.0000000e+000 +0.0000000e+000 
+1.4703350e+003 +9.0195456e+001 +4.9930530e+000 +4.2719541e+000 +1.5490226e+001 +1.4398217e-001 +1.6096433e-001 +2.8533119e-001 +6.7244150e-002 +6.5998934e-002 +9.2632078e-002 +3.7728377e-002 -7.0777342e-002 -8.4786393e-002 +6.4769286e-001 +6.4206296e-001 +6.1526887e-002 -2.0849623e-003 +7.4740604e-004 -2.3313765e-004 +2.3849790e-003 +2.6573439e-003 +4.8434502e-003 -3.6590405e+003 +9.7991495e+000 -5.3063690e+002 +2.6728928e-001 +0.0000000e+000 +0.0000000e+000 
+1.4704440e+003 +9.0295424e+001 +4.4532986e+000 +3.8107171e+000 +1.3901702e+001 +8.8821501e-002 +9.1085665e-002 +2.2870478e-001 +6.6650853e-002 +6.5743789e-002 +9.2541166e-002 +1.4657119e-002 -4.1327603e-002 -7.6831833e-002 +6.4743024e-001 +6.4164257e-001 +5.3284429e-002 -7.9385331e-004 -4.5286643e-004 -3.2024150e-004 +1.8889732e-003 +2.0869751e-003 +4.8426380e-003 -3.7121924e+003 +8.8100891e+000 -5.3072369e+002 +1.6250202e-001 +0.0000000e+000 +0.0000000e+000 
+1.4705380e+003 +9.0395456e+001 +4.4458709e+000 +3.7867789e+000 +1.3899055e+001 +9.1961347e-002 +9.3534693e-002 +2.3240836e-001 +6.6661723e-002 +6.5776132e-002 +9.2699192e-002 +1.1797514e-002 -3.9811157e-002 -7.5537838e-002 +6.4740753e-001 +6.4163607e-001 +5.3227823e-002 -6.9732807e-004 -6.1116507e-004 -3.3859076e-004 +1.8800665e-003 +2.0652334e-003 +4.8425128e-003 -3.7653335e+003 +8.8093166e+000 -5.3070221e+002 +1.7219391e-001 +0.0000000e+000 +0.0000000e+000 
+1.4706470e+003 +9.0495488e+001 +4.4459138e+000 +3.7870455e+000 +1.3899071e+001 +9.6275218e-002 +9.9019162e-002 +2.3637147e-001 +6.6700086e-002 +6.5810218e-002 +9.2894144e-002 +1.1797514e-002 -3.9811157e-002 -7.5537838e-002 +6.4740753e-001 +6.4163607e-001 +5.3227823e-002 -6.9732807e-004 -6.1116507e-004 -3.3859076e-004 +1.8800665e-003 +2.0652334e-003 +4.8425128e-003 -3.8183867e+003 +8.8093729e+000 -5.3070221e+002 +1.8586984e-001 +0.0000000e+000 +0.0000000e+000 
+1.4707410e+003 +9.0595456e+001 +4.4459801e+000 +3.7873411e+000 +1.3899127e+001 +1.0086871e-001 +1.0479439e-001 +2.4039024e-001 +6.6739090e-002 +6.5844856e-002 +9.3091324e-002 +1.1797514e-002 -3.9811157e-002 -7.5537838e-002 +6.4740753e-001 +6.4163607e-001 +5.3227823e-002 -6.9732807e-004 -6.1116507e-004 -3.3859076e-004 +1.8800665e-003 +2.0652334e-003 +4.8425128e-003 -3.8714724e+003 +8.8094664e+000 -5.3070221e+002 +1.9862136e-001 +0.0000000e+000 +0.0000000e+000 
+1.4708350e+003 +9.0695488e+001 +4.4460721e+000 +3.7876692e+000 +1.3899227e+001 +1.0579846e-001 +1.1089487e-001 +2.4445824e-001 +6.6778719e-002 +6.5880023e-002 +9.3290620e-002 +1.1797514e-002 -3.9811157e-002 -7.5537838e-002 +6.4740753e-001 +6.4163607e-001 +5.3227823e-002 -6.9732807e-004 -6.1116507e-004 -3.3859076e-004 +1.8800665e-003 +2.0652334e-003 +4.8425128e-003 -3.9245620e+003 +8.8096008e+000 -5.3070221e+002 +2.1060397e-001 +0.0000000e+000 +0.0000000e+000 
+1.4709440e+003 +9.0795520e+001 +4.4461927e+000 +3.7880352e+000 +1.3899372e+001 +1.1089879e-001 +1.1728922e-001 +2.4853386e-001 +6.6818938e-002 +6.5915689e-002 +9.3491860e-002 +1.1797514e-002 -3.9811157e-002 -7.5537838e-002 +6.4740753e-001 +6.4163607e-001 +5.3227823e-002 -6.9732807e-004 -6.1116507e-004 -3.3859076e-004 +1.8800665e-003 +2.0652334e-003 +4.8425128e-003 -3.9776152e+003 +8.8097830e+000 -5.3070221e+002 +2.2192542e-001 +0.0000000e+000 +0.0000000e+000 
+1.4710380e+003 +9.0895488e+001 +4.4463468e+000 +3.7884448e+000 +1.3899565e+001 +1.1616801e-001 +1.2379075e-001 +2.5266463e-001 +6.6859789e-002 +6.5951891e-002 +9.3695290e-002 +1.1797514e-002 -3.9811157e-002 -7.5537838e-002 +6.4740753e-001 +6.4163607e-001 +5.3227823e-002 -6.9732807e-004 -6.1116507e-004 -3.3859076e-004 +1.8800665e-003 +2.0652334e-003 +4.8425128e-003 -4.0307009e+003 +8.8100185e+000 -5.3070221e+002 +2.3270954e-001 +0.0000000e+000 +0.0000000e+000 
+1.4711320e+003 +9.0995520e+001 +4.4465370e+000 +3.7889030e+000 +1.3899807e+001 +1.2179548e-001 +1.3073468e-001 +2.5683278e-001 +6.6901229e-002 +6.5988600e-002 +9.3900658e-002 +1.1797514e-002 -3.9811157e-002 -7.5537838e-002 +6.4740753e-001 +6.4163607e-001 +5.3227823e-002 -6.9732807e-004 -6.1116507e-004 -3.3859076e-004 +1.8800665e-003 +2.0652334e-003 +4.8425128e-003 -4.0837542e+003 +8.8103132e+000 -5.3070221e+002 +2.4300328e-001 +0.0000000e+000 +0.0000000e+000 
+1.4712410e+003 +9.1095488e+001 +4.4467688e+000 +3.7894182e+000 +1.3900102e+001 +1.2761621e-001 +1.3780211e-001 +2.6104993e-001 +6.6943303e-002 +6.6025853e-002 +9.4108209e-002 +1.1797514e-002 -3.9811157e-002 -7.5537838e-002 +6.4740753e-001 +6.4163607e-001 +5.3227823e-002 -6.9732807e-004 -6.1116507e-004 -3.3859076e-004 +1.8800665e-003 +2.0652334e-003 +4.8425128e-003 -4.1368438e+003 +8.8106718e+000 -5.3070221e+002 +2.5289163e-001 +0.0000000e+000 +0.0000000e+000 
+1.4713350e+003 +9.1195520e+001 +4.4470468e+000 +3.7899961e+000 +1.3900449e+001 +1.3354626e-001 +1.4482524e-001 +2.6525328e-001 +6.6985965e-002 +6.6063605e-002 +9.4317645e-002 +1.1797514e-002 -3.9811157e-002 -7.5537838e-002 +6.4740753e-001 +6.4163607e-001 +5.3227823e-002 -6.9732807e-004 -6.1116507e-004 -3.3859076e-004 +1.8800665e-003 +2.0652334e-003 +4.8425128e-003 -4.1898970e+003 +8.8110991e+000 -5.3070221e+002 +2.6239482e-001 +0.0000000e+000 +0.0000000e+000 
+1.4714440e+003 +9.1295488e+001 +4.0635142e+000 +3.4673505e+000 +1.2749743e+001 +8.6073935e-002 +8.7584838e-002 +2.1821813e-001 +6.6362612e-002 +6.5738253e-002 +9.4034113e-002 -4.0015597e-002 -2.1639550e-002 -7.6973669e-002 +6.4586419e-001 +6.4104593e-001 +4.6863023e-002 +1.7936464e-004 -1.4635851e-003 -3.8493323e-004 +1.5044732e-003 +1.6634976e-003 +4.8398338e-003 -4.2429761e+003 +8.0900040e+000 -5.3074042e+002 +1.5735054e-001 +0.0000000e+000 +0.0000000e+000 
+1.4715380e+003 +9.1395520e+001 +4.0582161e+000 +3.4491663e+000 +1.2747945e+001 +8.8962153e-002 +8.9748159e-002 +2.2154042e-001 +6.6356644e-002 +6.5766029e-002 +9.4216913e-002 -4.4754453e-002 -1.9550430e-002 -7.6031730e-002 +6.4579260e-001 +6.4103192e-001 +4.6824049e-002 +2.5308208e-004 -1.5792382e-003 -4.0005404e-004 +1.4970113e-003 +1.6468477e-003 +4.8397365e-003 -4.2961064e+003 +8.0894814e+000 -5.3071979e+002 +1.6704684e-001 +0.0000000e+000 +0.0000000e+000 
+1.4716470e+003 +9.1495552e+001 +4.0583048e+000 +3.4494512e+000 +1.2748107e+001 +9.2791833e-002 +9.4426982e-002 +2.2506213e-001 +6.6383965e-002 +6.5794349e-002 +9.4432481e-002 -4.4754453e-002 -1.9550430e-002 -7.6031730e-002 +6.4579260e-001 +6.4103192e-001 +4.6824049e-002 +2.5308208e-004 -1.5792382e-003 -4.0005404e-004 +1.4970113e-003 +1.6468477e-003 +4.8397365e-003 -4.3491616e+003 +8.0896254e+000 -5.3071979e+002 +1.8111187e-001 +0.0000000e+000 +0.0000000e+000 
+1.4717410e+003 +9.1595520e+001 +4.0584164e+000 +3.4497643e+000 +1.2748312e+001 +9.6929811e-002 +9.9413425e-002 +2.2861297e-001 +6.6411689e-002 +6.5823026e-002 +9.4650172e-002 -4.4754453e-002 -1.9550430e-002 -7.6031730e-002 +6.4579260e-001 +6.4103192e-001 +4.6824049e-002 +2.5308208e-004 -1.5792382e-003 -4.0005404e-004 +1.4970113e-003 +1.6468477e-003 +4.8397365e-003 -4.4022529e+003 +8.0898075e+000 -5.3071979e+002 +1.9417800e-001 +0.0000000e+000 +0.0000000e+000 
+1.4718350e+003 +9.1695552e+001 +4.0585542e+000 +3.4501092e+000 +1.2748562e+001 +1.0119169e-001 +1.0446931e-001 +2.3218146e-001 +6.6439793e-002 +6.5852009e-002 +9.4869703e-002 -4.4754453e-002 -1.9550430e-002 -7.6031730e-002 +6.4579260e-001 +6.4103192e-001 +4.6824049e-002 +2.5308208e-004 -1.5792382e-003 -4.0005404e-004 +1.4970113e-003 +1.6468477e-003 +4.8397365e-003 -4.4553081e+003 +8.0900326e+000 -5.3071979e+002 +2.0640242e-001 +0.0000000e+000 +0.0000000e+000 
+1.4719440e+003 +9.1795520e+001 +4.0587211e+000 +3.4504910e+000 +1.2748858e+001 +1.0567251e-001 +1.0976401e-001 +2.3578665e-001 +6.6468313e-002 +6.5881334e-002 +9.5091321e-002 -4.4754453e-002 -1.9550430e-002 -7.6031730e-002 +6.4579260e-001 +6.4103192e-001 +4.6824049e-002 +2.5308208e-004 -1.5792382e-003 -4.0005404e-004 +1.4970113e-003 +1.6468477e-003 +4.8397365e-003 -4.5083955e+003 +8.0903082e+000 -5.3071979e+002 +2.1795595e-001 +0.0000000e+000 +0.0000000e+000 
+1.4720380e+003 +9.1895552e+001 +4.0589199e+000 +3.4509141e+000 +1.2749203e+001 +1.1029744e-001 +1.1537378e-001 +2.3944126e-001 +6.6497222e-002 +6.5911002e-002 +9.5314905e-002 -4.4754453e-002 -1.9550430e-002 -7.6031730e-002 +6.4579260e-001 +6.4103192e-001 +4.6824049e-002 +2.5308208e-004 -1.5792382e-003 -4.0005404e-004 +1.4970113e-003 +1.6468477e-003 +4.8397365e-003 -4.5614868e+003 +8.0906391e+000 -5.3071979e+002 +2.2892877e-001 +0.0000000e+000 +0.0000000e+000 
+1.4721320e+003 +9.1995520e+001 +4.0591550e+000 +3.4513834e+000 +1.2749597e+001 +1.1513411e-001 +1.2119289e-001 +2.4312089e-001 +6.6526502e-002 +6.5940976e-002 +9.5540270e-002 -4.4754453e-002 -1.9550430e-002 -7.6031730e-002 +6.4579260e-001 +6.4103192e-001 +4.6824049e-002 +2.5308208e-004 -1.5792382e-003 -4.0005404e-004 +1.4970113e-003 +1.6468477e-003 +4.8397365e-003 -4.6145420e+003 +8.0910320e+000 -5.3071979e+002 +2.3938514e-001 +0.0000000e+000 +0.0000000e+000 
+1.4722410e+003 +9.2095552e+001 +4.0594301e+000 +3.4519060e+000 +1.2750044e+001 +1.2030409e-001 +1.2732317e-001 +2.4682762e-001 +6.6556193e-002 +6.5971293e-002 +9.5767692e-002 -4.4754453e-002 -1.9550430e-002 -7.6031730e-002 +6.4579260e-001 +6.4103192e-001 +4.6824049e-002 +2.5308208e-004 -1.5792382e-003 -4.0005404e-004 +1.4970113e-003 +1.6468477e-003 +4.8397365e-003 -4.6676294e+003 +8.0914927e+000 -5.3071979e+002 +2.4941549e-001 +0.0000000e+000 +0.0000000e+000 
+1.4723350e+003 +9.2195584e+001 +4.0597496e+000 +3.4524868e+000 +1.2750546e+001 +1.2571900e-001 +1.3335264e-001 +2.5051391e-001 +6.6586263e-002 +6.6001929e-002 +9.5996894e-002 -4.4754453e-002 -1.9550430e-002 -7.6031730e-002 +6.4579260e-001 +6.4103192e-001 +4.6824049e-002 +2.5308208e-004 -1.5792382e-003 -4.0005404e-004 +1.4970113e-003 +1.6468477e-003 +4.8397365e-003 -4.7206846e+003 +8.0920267e+000 -5.3071979e+002 +2.5904623e-001 +0.0000000e+000 +0.0000000e+000 
+1.4724440e+003 +9.2295552e+001 +3.7692244e+000 +3.2104506e+000 +1.1867887e+001 +8.3862238e-002 +8.4431849e-002 +2.0984644e-001 +6.6005878e-002 +6.5687254e-002 +9.5177568e-002 -8.7422669e-002 -2.2996254e-003 -7.5474940e-002 +6.4330184e-001 +6.4013100e-001 +4.1708831e-002 +6.2980165e-004 -2.1083779e-003 -4.3847691e-004 +1.2185399e-003 +1.3530867e-003 +4.8333923e-003 -4.7738242e+003 +7.5366626e+000 -5.3077393e+002 +1.5327446e-001 +0.0000000e+000 +0.0000000e+000 
+1.4725380e+003 +9.2395584e+001 +3.7652314e+000 +3.1960907e+000 +1.1866646e+001 +8.6471088e-002 +8.6351611e-002 +2.1284156e-001 +6.5990165e-002 +6.5709718e-002 +9.5409594e-002 -8.9493185e-002 -7.5186300e-004 -7.5217463e-002 +6.4318424e-001 +6.4006507e-001 +4.1680917e-002 +6.4954377e-004 -2.1383192e-003 -4.3552712e-004 +1.2128837e-003 +1.3413499e-003 +4.8333607e-003 -4.8269326e+003 +7.5363307e+000 -5.3076672e+002 +1.6297975e-001 +0.0000000e+000 +0.0000000e+000 
+1.4726470e+003 +9.2495616e+001 +3.7653584e+000 +3.1963923e+000 +1.1866940e+001 +9.0020999e-002 +9.0613663e-002 +2.1599625e-001 +6.6009961e-002 +6.5733634e-002 +9.5643729e-002 -8.9493185e-002 -7.5186300e-004 -7.5217463e-002 +6.4318424e-001 +6.4006507e-001 +4.1680917e-002 +6.4954377e-004 -2.1383192e-003 -4.3552712e-004 +1.2128837e-003 +1.3413499e-003 +4.8333607e-003 -4.8799922e+003 +7.5365548e+000 -5.3076672e+002 +1.7736758e-001 +0.0000000e+000 +0.0000000e+000 
+1.4727410e+003 +9.2595584e+001 +3.7655091e+000 +3.1967216e+000 +1.1867279e+001 +9.3756177e-002 +9.4871193e-002 +2.1915813e-001 +6.6030033e-002 +6.5757781e-002 +9.5879875e-002 -8.9493185e-002 -7.5186300e-004 -7.5217463e-002 +6.4318424e-001 +6.4006507e-001 +4.1680917e-002 +6.4954377e-004 -2.1383192e-003 -4.3552712e-004 +1.2128837e-003 +1.3413499e-003 +4.8333607e-003 -4.9330845e+003 +7.5368180e+000 -5.3076672e+002 +1.9068851e-001 +0.0000000e+000 +0.0000000e+000 
+1.4728350e+003 +9.2695616e+001 +3.7656858e+000 +3.1970823e+000 +1.1867662e+001 +9.7707711e-002 +9.9268191e-002 +2.2233200e-001 +6.6050358e-002 +6.5782130e-002 +9.6117735e-002 -8.9493185e-002 -7.5186300e-004 -7.5217463e-002 +6.4318424e-001 +6.4006507e-001 +4.1680917e-002 +6.4954377e-004 -2.1383192e-003 -4.3552712e-004 +1.2128837e-003 +1.3413499e-003 +4.8333607e-003 -4.9861440e+003 +7.5371256e+000 -5.3076672e+002 +2.0312303e-001 +0.0000000e+000 +0.0000000e+000 
+1.4729440e+003 +9.2795584e+001 +3.7658913e+000 +3.1974781e+000 +1.1868093e+001 +1.0176956e-001 +1.0384957e-001 +2.2554013e-001 +6.6070959e-002 +6.5806709e-002 +9.6357591e-002 -8.9493185e-002 -7.5186300e-004 -7.5217463e-002 +6.4318424e-001 +6.4006507e-001 +4.1680917e-002 +6.4954377e-004 -2.1383192e-003 -4.3552712e-004 +1.2128837e-003 +1.3413499e-003 +4.8333607e-003 -5.0392402e+003 +7.5374851e+000 -5.3076672e+002 +2.1485473e-001 +0.0000000e+000 +0.0000000e+000 
+1.4730380e+003 +9.2895616e+001 +3.7661295e+000 +3.1979132e+000 +1.1868573e+001 +1.0589779e-001 +1.0890889e-001 +2.2881733e-001 +6.6091821e-002 +6.5831505e-002 +9.6599273e-002 -8.9493185e-002 -7.5186300e-004 -7.5217463e-002 +6.4318424e-001 +6.4006507e-001 +4.1680917e-002 +6.4954377e-004 -2.1383192e-003 -4.3552712e-004 +1.2128837e-003 +1.3413499e-003 +4.8333607e-003 -5.0923325e+003 +7.5379024e+000 -5.3076672e+002 +2.2597653e-001 +0.0000000e+000 +0.0000000e+000 
+1.4731320e+003 +9.2995712e+001 +3.7664025e+000 +3.1983945e+000 +1.1869102e+001 +1.1043008e-001 +1.1424815e-001 +2.3210149e-001 +6.6112936e-002 +6.5856501e-002 +9.6842609e-002 -8.9493185e-002 -7.5186300e-004 -7.5217463e-002 +6.4318424e-001 +6.4006507e-001 +4.1680917e-002 +6.4954377e-004 -2.1383192e-003 -4.3552712e-004 +1.2128837e-003 +1.3413499e-003 +4.8333607e-003 -5.1453921e+003 +7.5383835e+000 -5.3076672e+002 +2.3656343e-001 +0.0000000e+000 +0.0000000e+000 
+1.4732410e+003 +9.3095616e+001 +3.7667150e+000 +3.1989238e+000 +1.1869685e+001 +1.1508617e-001 +1.1934057e-001 +2.3536459e-001 +6.6134326e-002 +6.5881729e-002 +9.7087897e-002 -8.9493185e-002 -7.5186300e-004 -7.5217463e-002 +6.4318424e-001 +6.4006507e-001 +4.1680917e-002 +6.4954377e-004 -2.1383192e-003 -4.3552712e-004 +1.2128837e-003 +1.3413499e-003 +4.8333607e-003 -5.1984844e+003 +7.5389366e+000 -5.3076672e+002 +2.4670853e-001 +0.0000000e+000 +0.0000000e+000 
+1.4733350e+003 +9.3195584e+001 +3.7670710e+000 +3.1995075e+000 +1.1870321e+001 +1.1972391e-001 +1.2490183e-001 +2.3870257e-001 +6.6155963e-002 +6.5907165e-002 +9.7334825e-002 -8.9493185e-002 -7.5186300e-004 -7.5217463e-002 +6.4318424e-001 +6.4006507e-001 +4.1680917e-002 +6.4954377e-004 -2.1383192e-003 -4.3552712e-004 +1.2128837e-003 +1.3413499e-003 +4.8333607e-003 -5.2515439e+003 +7.5395665e+000 -5.3076672e+002 +2.5644094e-001 +0.0000000e+000 +0.0000000e+000 
+1.4734440e+003 +9.3295616e+001 +3.5372498e+000 +3.0092962e+000 +1.1165917e+001 +8.1827953e-002 +8.2577728e-002 +2.0287400e-001 +6.5667033e-002 +6.5588512e-002 +9.5847137e-002 -9.4813660e-002 +7.9460936e-003 -7.9546914e-002 +6.4101642e-001 +6.3923037e-001 +3.7500434e-002 +5.7335780e-004 -2.2569352e-003 -4.8950268e-004 +1.0107410e-003 +1.1211187e-003 +4.8218463e-003 -5.3046636e+003 +7.0950861e+000 -5.3080457e+002 +1.4983876e-001 +0.0000000e+000 +0.0000000e+000 
+1.4735380e+003 +9.3395648e+001 +3.5341251e+000 +2.9976220e+000 +1.1165073e+001 +8.4082201e-002 +8.4099881e-002 +2.0558098e-001 +6.5647878e-002 +6.5600432e-002 +9.6079655e-002 -9.4190463e-002 +8.2128299e-003 -7.9602823e-002 +6.4089948e-001 +6.3920903e-001 +3.7483998e-002 +5.6853140e-004 -2.2492076e-003 -4.8825401e-004 +1.0062780e-003 +1.1107741e-003 +4.8217843e-003 -5.3577231e+003 +7.0949073e+000 -5.3080676e+002 +1.5955916e-001 +0.0000000e+000 +0.0000000e+000 
+1.4736470e+003 +9.3495616e+001 +3.5342863e+000 +2.9979382e+000 +1.1165489e+001 +8.7346949e-002 +8.8009529e-002 +2.0842916e-001 +6.5662034e-002 +6.5619938e-002 +9.6330404e-002 -9.4190463e-002 +8.2128299e-003 -7.9602823e-002 +6.4089948e-001 +6.3920903e-001 +3.7483998e-002 +5.6853140e-004 -2.2492076e-003 -4.8825401e-004 +1.0062780e-003 +1.1107741e-003 +4.8217843e-003 -5.4108193e+003 +7.0952048e+000 -5.3080676e+002 +1.7424686e-001 +0.0000000e+000 +0.0000000e+000 
+1.4737410e+003 +9.3595648e+001 +3.5344706e+000 +2.9982817e+000 +1.1165948e+001 +9.0627544e-002 +9.2006437e-002 +2.1131019e-001 +6.5676369e-002 +6.5639593e-002 +9.6582942e-002 -9.4190463e-002 +8.2128299e-003 -7.9602823e-002 +6.4089948e-001 +6.3920903e-001 +3.7483998e-002 +5.6853140e-004 -2.2492076e-003 -4.8825401e-004 +1.0062780e-003 +1.1107741e-003 +4.8217843e-003 -5.4639194e+003 +7.0955415e+000 -5.3080676e+002 +1.8779126e-001 +0.0000000e+000 +0.0000000e+000 
+1.4738350e+003 +9.3695680e+001 +3.5346808e+000 +2.9986556e+000 +1.1166452e+001 +9.4320506e-002 +9.6135542e-002 +2.1415785e-001 +6.5690875e-002 +6.5659381e-002 +9.6837051e-002 -9.4190463e-002 +8.2128299e-003 -7.9602823e-002 +6.4089948e-001 +6.3920903e-001 +3.7483998e-002 +5.6853140e-004 -2.2492076e-003 -4.8825401e-004 +1.0062780e-003 +1.1107741e-003 +4.8217843e-003 -5.5169829e+003 +7.0959239e+000 -5.3080676e+002 +2.0040563e-001 +0.0000000e+000 +0.0000000e+000 
+1.4739440e+003 +9.3795648e+001 +3.5349200e+000 +2.9990647e+000 +1.1167004e+001 +9.7692683e-002 +1.0029410e-001 +2.1708889e-001 +6.5705575e-002 +6.5679327e-002 +9.7093046e-002 -9.4190463e-002 +8.2128299e-003 -7.9602823e-002 +6.4089948e-001 +6.3920903e-001 +3.7483998e-002 +5.6853140e-004 -2.2492076e-003 -4.8825401e-004 +1.0062780e-003 +1.1107741e-003 +4.8217843e-003 -5.5700791e+003 +7.0963602e+000 -5.3080676e+002 +2.1228580e-001 +0.0000000e+000 +0.0000000e+000 
+1.4740380e+003 +9.3895680e+001 +3.5351899e+000 +2.9995120e+000 +1.1167604e+001 +1.0144755e-001 +1.0454798e-001 +2.1998698e-001 +6.5720446e-002 +6.5699413e-002 +9.7350597e-002 -9.4190463e-002 +8.2128299e-003 -7.9602823e-002 +6.4089948e-001 +6.3920903e-001 +3.7483998e-002 +5.6853140e-004 -2.2492076e-003 -4.8825401e-004 +1.0062780e-003 +1.1107741e-003 +4.8217843e-003 -5.6231426e+003 +7.0968556e+000 -5.3080676e+002 +2.2352208e-001 +0.0000000e+000 +0.0000000e+000 
+1.4741320e+003 +9.3995648e+001 +3.5354943e+000 +3.0000021e+000 +1.1168256e+001 +1.0526846e-001 +1.0895636e-001 +2.2291644e-001 +6.5735504e-002 +6.5719664e-002 +9.7610019e-002 -9.4190463e-002 +8.2128299e-003 -7.9602823e-002 +6.4089948e-001 +6.3920903e-001 +3.7483998e-002 +5.6853140e-004 -2.2492076e-003 -4.8825401e-004 +1.0062780e-003 +1.1107741e-003 +4.8217843e-003 -5.6762388e+003 +7.0974188e+000 -5.3080676e+002 +2.3423272e-001 +0.0000000e+000 +0.0000000e+000 
+1.4742410e+003 +9.4095680e+001 +3.5358365e+000 +3.0005400e+000 +1.1168960e+001 +1.0926054e-001 +1.1326109e-001 +2.2581492e-001 +6.5750748e-002 +6.5740071e-002 +9.7871147e-002 -9.4190463e-002 +8.2128299e-003 -7.9602823e-002 +6.4089948e-001 +6.3920903e-001 +3.7483998e-002 +5.6853140e-004 -2.2492076e-003 -4.8825401e-004 +1.0062780e-003 +1.1107741e-003 +4.8217843e-003 -5.7293389e+003 +7.0980554e+000 -5.3080676e+002 +2.4447608e-001 +0.0000000e+000 +0.0000000e+000 
+1.4743350e+003 +9.4195712e+001 +3.5362194e+000 +3.0011292e+000 +1.1169717e+001 +1.1339838e-001 +1.1781375e-001 +2.2874485e-001 +6.5766171e-002 +6.5760612e-002 +9.8133773e-002 -9.4190463e-002 +8.2128299e-003 -7.9602823e-002 +6.4089948e-001 +6.3920903e-001 +3.7483998e-002 +5.6853140e-004 -2.2492076e-003 -4.8825401e-004 +1.0062780e-003 +1.1107741e-003 +4.8217843e-003 -5.7824023e+003 +7.0987725e+000 -5.3080676e+002 +2.5429395e-001 +0.0000000e+000 +0.0000000e+000 
+1.4744440e+003 +9.4295680e+001 +3.3593433e+000 +2.8470044e+000 +1.0852065e+001 +7.9877384e-002 +8.0555335e-002 +2.1772918e-001 +6.5455407e-002 +6.5435827e-002 +9.6799120e-002 -7.4592978e-002 -6.3176267e-005 -7.7860586e-002 +6.3997263e-001 +6.3821667e-001 +3.6014959e-002 +5.7209784e-004 -2.1062477e-003 -4.4243532e-004 +8.8019943e-004 +9.4886677e-004 +4.8124874e-003 -5.8352866e+003 +6.9091282e+000 -5.3055627e+002 +1.6594128e-001 +0.0000000e+000 +0.0000000e+000 
+1.4745380e+003 +9.4395712e+001 +3.3572044e+000 +2.8374460e+000 +1.0852696e+001 +8.1829041e-002 +8.1684843e-002 +2.1926519e-001 +6.5421611e-002 +6.5436430e-002 +9.7061224e-002 -8.7671690e-002 -6.6462792e-003 -8.0301851e-002 +6.3979763e-001 +6.3817227e-001 +3.5906475e-002 +6.8422838e-004 -2.2343157e-003 -4.4689831e-004 +8.7079854e-004 +9.3748642e-004 +4.8124851e-003 -5.8883340e+003 +6.9091144e+000 -5.3049847e+002 +1.6751225e-001 +0.0000000e+000 +0.0000000e+000 
+1.4746470e+003 +9.4495680e+001 +3.3573923e+000 +2.8377762e+000 +1.0853461e+001 +8.4789135e-002 +8.5062787e-002 +2.2203174e-001 +6.5431744e-002 +6.5452255e-002 +9.7328119e-002 -8.7671690e-002 -6.6462792e-003 -8.0301851e-002 +6.3979763e-001 +6.3817227e-001 +3.5906475e-002 +6.8422838e-004 -2.2343157e-003 -4.4689831e-004 +8.7079854e-004 +9.3748642e-004 +4.8124851e-003 -5.9414033e+003 +6.9096341e+000 -5.3049847e+002 +1.8155976e-001 +0.0000000e+000 +0.0000000e+000 
+1.4747410e+003 +9.4595712e+001 +3.3576026e+000 +2.8381333e+000 +1.0854280e+001 +8.7790258e-002 +8.8758484e-002 +2.2486091e-001 +6.5442003e-002 +6.5468200e-002 +9.7596630e-002 -8.7671690e-002 -6.6462792e-003 -8.0301851e-002 +6.3979763e-001 +6.3817227e-001 +3.5906475e-002 +6.8422838e-004 -2.2343157e-003 -4.4689831e-004 +8.7079854e-004 +9.3748642e-004 +4.8124851e-003 -5.9944688e+003 +6.9101982e+000 -5.3049847e+002 +1.9459391e-001 +0.0000000e+000 +0.0000000e+000 
+1.4748350e+003 +9.4695744e+001 +3.3578379e+000 +2.8385205e+000 +1.0855155e+001 +9.0877481e-002 +9.2228979e-002 +2.2765449e-001 +6.5452389e-002 +6.5484241e-002 +9.7866610e-002 -8.7671690e-002 -6.6462792e-003 -8.0301851e-002 +6.3979763e-001 +6.3817227e-001 +3.5906475e-002 +6.8422838e-004 -2.2343157e-003 -4.4689831e-004 +8.7079854e-004 +9.3748642e-004 +4.8124851e-003 -6.0475015e+003 +6.9108129e+000 -5.3049847e+002 +2.0679373e-001 +0.0000000e+000 +0.0000000e+000 
+1.4749440e+003 +9.4795712e+001 +3.3581002e+000 +2.8389411e+000 +1.0856087e+001 +9.3986079e-002 +9.5843613e-002 +2.3049121e-001 +6.5462910e-002 +6.5500401e-002 +9.8138370e-002 -8.7671690e-002 -6.6462792e-003 -8.0301851e-002 +6.3979763e-001 +6.3817227e-001 +3.5906475e-002 +6.8422838e-004 -2.2343157e-003 -4.4689831e-004 +8.7079854e-004 +9.3748642e-004 +4.8124851e-003 -6.1005669e+003 +6.9114861e+000 -5.3049847e+002 +2.1832657e-001 +0.0000000e+000 +0.0000000e+000 
+1.4750380e+003 +9.4895744e+001 +3.3583920e+000 +2.8393981e+000 +1.0857078e+001 +9.7115338e-002 +9.9692509e-002 +2.3338698e-001 +6.5473564e-002 +6.5516673e-002 +9.8411560e-002 -8.7671690e-002 -6.6462792e-003 -8.0301851e-002 +6.3979763e-001 +6.3817227e-001 +3.5906475e-002 +6.8422838e-004 -2.2343157e-003 -4.4689831e-004 +8.7079854e-004 +9.3748642e-004 +4.8124851e-003 -6.1535996e+003 +6.9122243e+000 -5.3049847e+002 +2.2926699e-001 +0.0000000e+000 +0.0000000e+000 
+1.4751320e+003 +9.4995712e+001 +3.3587162e+000 +2.8398964e+000 +1.0858130e+001 +1.0056923e-001 +1.0413683e-001 +2.3632775e-001 +6.5484352e-002 +6.5533064e-002 +9.8686539e-002 -8.7671690e-002 -6.6462792e-003 -8.0301851e-002 +6.3979763e-001 +6.3817227e-001 +3.5906475e-002 +6.8422838e-004 -2.2343157e-003 -4.4689831e-004 +8.7079854e-004 +9.3748642e-004 +4.8124851e-003 -6.2066689e+003 +6.9130359e+000 -5.3049847e+002 +2.3972262e-001 +0.0000000e+000 +0.0000000e+000 
+1.4752410e+003 +9.5095744e+001 +3.3590758e+000 +2.8404400e+000 +1.0859245e+001 +1.0408444e-001 +1.0819966e-001 +2.3919776e-001 +6.5495268e-002 +6.5549567e-002 +9.8963082e-002 -8.7671690e-002 -6.6462792e-003 -8.0301851e-002 +6.3979763e-001 +6.3817227e-001 +3.5906475e-002 +6.8422838e-004 -2.2343157e-003 -4.4689831e-004 +8.7079854e-004 +9.3748642e-004 +4.8124851e-003 -6.2597344e+003 +6.9139266e+000 -5.3049847e+002 +2.4973942e-001 +0.0000000e+000 +0.0000000e+000 
+1.4753350e+003 +9.5195712e+001 +3.3594735e+000 +2.8410332e+000 +1.0860425e+001 +1.0776222e-001 +1.1239493e-001 +2.4205545e-001 +6.5506309e-002 +6.5566167e-002 +9.9241011e-002 -8.7671690e-002 -6.6462792e-003 -8.0301851e-002 +6.3979763e-001 +6.3817227e-001 +3.5906475e-002 +6.8422838e-004 -2.2343157e-003 -4.4689831e-004 +8.7079854e-004 +9.3748642e-004 +4.8124851e-003 -6.3127671e+003 +6.9149032e+000 -5.3049847e+002 +2.5935811e-001 +0.0000000e+000 +0.0000000e+000 
+1.4754440e+003 +9.5295744e+001 +3.2006567e+000 +2.7120202e+000 +1.0329204e+001 +7.7406429e-002 +7.8280270e-002 +2.0378092e-001 +6.5232530e-002 +6.5246604e-002 +9.8016717e-002 -1.1164434e-001 +5.9659030e-002 -8.2304254e-002 +6.3879710e-001 +6.3690674e-001 +3.2095544e-002 +1.3782654e-004 -1.9883506e-003 -4.4498534e-004 +7.4857328e-004 +8.0444518e-004 +4.8035840e-003 -6.3663086e+003 +6.5773177e+000 -5.3089948e+002 +1.4977732e-001 +0.0000000e+000 +0.0000000e+000 
+1.4755380e+003 +9.5395776e+001 +3.1988435e+000 +2.7039139e+000 +1.0329507e+001 +7.9297870e-002 +7.9632953e-002 +2.0630419e-001 +6.5239102e-002 +6.5236539e-002 +9.8262429e-002 -1.1395580e-001 +6.7678809e-002 -8.2604878e-002 +6.3878655e-001 +6.3677901e-001 +3.2092005e-002 +9.3191033e-005 -1.9234819e-003 -4.0937497e-004 +7.4520672e-004 +7.9781649e-004 +4.8032505e-003 -6.4193594e+003 +6.5772347e+000 -5.3092889e+002 +1.5858473e-001 +0.0000000e+000 +0.0000000e+000 
+1.4756470e+003 +9.5495744e+001 +3.1990654e+000 +2.7042580e+000 +1.0330292e+001 +8.1818640e-002 +8.2725592e-002 +2.0885314e-001 +6.5246537e-002 +6.5249220e-002 +9.8544277e-002 -1.1395580e-001 +6.7678809e-002 -8.2604878e-002 +6.3878655e-001 +6.3677901e-001 +3.2092005e-002 +9.3191033e-005 -1.9234819e-003 -4.0937497e-004 +7.4520672e-004 +7.9781649e-004 +4.8032505e-003 -6.4724678e+003 +6.5777469e+000 -5.3092889e+002 +1.7335500e-001 +0.0000000e+000 +0.0000000e+000 
+1.4757410e+003 +9.5595776e+001 +3.1993101e+000 +2.7046285e+000 +1.0331127e+001 +8.4440008e-002 +8.5904673e-002 +2.1137218e-001 +6.5254062e-002 +6.5261967e-002 +9.8827474e-002 -1.1395580e-001 +6.7678809e-002 -8.2604878e-002 +6.3878655e-001 +6.3677901e-001 +3.2092005e-002 +9.3191033e-005 -1.9234819e-003 -4.0937497e-004 +7.4520672e-004 +7.9781649e-004 +4.8032505e-003 -6.5255435e+003 +6.5783005e+000 -5.3092889e+002 +1.8694603e-001 +0.0000000e+000 +0.0000000e+000 
+1.4758350e+003 +9.5695744e+001 +3.1995795e+000 +2.7050283e+000 +1.0332014e+001 +8.7075777e-002 +8.9167997e-002 +2.1394813e-001 +6.5261684e-002 +6.5274812e-002 +9.9112369e-002 -1.1395580e-001 +6.7678809e-002 -8.2604878e-002 +6.3878655e-001 +6.3677901e-001 +3.2092005e-002 +9.3191033e-005 -1.9234819e-003 -4.0937497e-004 +7.4520672e-004 +7.9781649e-004 +4.8032505e-003 -6.5786519e+003 +6.5789037e+000 -5.3092889e+002 +1.9962880e-001 +0.0000000e+000 +0.0000000e+000 
+1.4759440e+003 +9.5795776e+001 +3.1998754e+000 +2.7054608e+000 +1.0332955e+001 +8.9937679e-002 +9.2613928e-002 +2.1653028e-001 +6.5269403e-002 +6.5287739e-002 +9.9398792e-002 -1.1395580e-001 +6.7678809e-002 -8.2604878e-002 +6.3878655e-001 +6.3677901e-001 +3.2092005e-002 +9.3191033e-005 -1.9234819e-003 -4.0937497e-004 +7.4520672e-004 +7.9781649e-004 +4.8032505e-003 -6.6317642e+003 +6.5795636e+000 -5.3092889e+002 +2.1155436e-001 +0.0000000e+000 +0.0000000e+000 
+1.4760380e+003 +9.5895808e+001 +3.2002001e+000 +2.7059290e+000 +1.0333950e+001 +9.2779703e-002 +9.6138380e-002 +2.1917090e-001 +6.5277211e-002 +6.5300748e-002 +9.9686511e-002 -1.1395580e-001 +6.7678809e-002 -8.2604878e-002 +6.3878655e-001 +6.3677901e-001 +3.2092005e-002 +9.3191033e-005 -1.9234819e-003 -4.0937497e-004 +7.4520672e-004 +7.9781649e-004 +4.8032505e-003 -6.6848398e+003 +6.5802875e+000 -5.3092889e+002 +2.2282752e-001 +0.0000000e+000 +0.0000000e+000 
+1.4761320e+003 +9.5995776e+001 +3.2005563e+000 +2.7064369e+000 +1.0335002e+001 +9.5675662e-002 +9.9490084e-002 +2.2172774e-001 +6.5285124e-002 +6.5313838e-002 +9.9975891e-002 -1.1395580e-001 +6.7678809e-002 -8.2604878e-002 +6.3878655e-001 +6.3677901e-001 +3.2092005e-002 +9.3191033e-005 -1.9234819e-003 -4.0937497e-004 +7.4520672e-004 +7.9781649e-004 +4.8032505e-003 -6.7379482e+003 +6.5810833e+000 -5.3092889e+002 +2.3357001e-001 +0.0000000e+000 +0.0000000e+000 
+1.4762410e+003 +9.6095808e+001 +3.2009461e+000 +2.7069869e+000 +1.0336111e+001 +9.8694570e-002 +1.0316846e-001 +2.2432004e-001 +6.5293118e-002 +6.5327011e-002 +1.0026655e-001 -1.1395580e-001 +6.7678809e-002 -8.2604878e-002 +6.3878655e-001 +6.3677901e-001 +3.2092005e-002 +9.3191033e-005 -1.9234819e-003 -4.0937497e-004 +7.4520672e-004 +7.9781649e-004 +4.8032505e-003 -6.7910239e+003 +6.5819578e+000 -5.3092889e+002 +2.4382742e-001 +0.0000000e+000 +0.0000000e+000 
+1.4763350e+003 +9.6195776e+001 +3.2013724e+000 +2.7075844e+000 +1.0337280e+001 +1.0174820e-001 +1.0717493e-001 +2.2715451e-001 +6.5301217e-002 +6.5340266e-002 +1.0055886e-001 -1.1395580e-001 +6.7678809e-002 -8.2604878e-002 +6.3878655e-001 +6.3677901e-001 +3.2092005e-002 +9.3191033e-005 -1.9234819e-003 -4.0937497e-004 +7.4520672e-004 +7.9781649e-004 +4.8032505e-003 -6.8441362e+003 +6.5829191e+000 -5.3092889e+002 +2.5368366e-001 +0.0000000e+000 +0.0000000e+000 
+1.4764440e+003 +9.6295936e+001 +3.0661457e+000 +2.5979240e+000 +9.8871231e+000 +7.5813405e-002 +7.6490343e-002 +1.9532768e-001 +6.4987682e-002 +6.5078184e-002 +9.9610880e-002 -1.7091437e-001 +1.0957059e-001 -8.5359879e-002 +6.3627005e-001 +6.3498628e-001 +2.9175835e-002 -3.3560727e-004 -1.7093717e-003 +1.2677629e-007 +6.5175717e-004 +6.9539173e-004 +4.7907769e-003 -6.8973589e+003 +6.2965946e+000 -5.3092676e+002 +1.4590022e-001 +0.0000000e+000 +0.0000000e+000 
+1.4765380e+003 +9.6395840e+001 +3.0646191e+000 +2.5909560e+000 +9.8874340e+000 +7.7731408e-002 +7.7752866e-002 +1.9763660e-001 +6.4986393e-002 +6.5050080e-002 +9.9830195e-002 -1.7997967e-001 +1.1951540e-001 -8.5812137e-002 +6.3605684e-001 +6.3472933e-001 +2.9164327e-002 -3.7134247e-004 -1.6629559e-003 +5.2759187e-005 +6.4851559e-004 +6.9026340e-004 +4.7898218e-003 -6.9504131e+003 +6.2966104e+000 -5.3095160e+002 +1.5538917e-001 +0.0000000e+000 +0.0000000e+000 
+1.4766470e+003 +9.6495808e+001 +3.0648692e+000 +2.5913129e+000 +9.8882656e+000 +8.0273181e-002 +8.0728456e-002 +2.0010708e-001 +6.4993650e-002 +6.5061949e-002 +1.0012520e-001 -1.7997967e-001 +1.1951540e-001 -8.5812137e-002 +6.3605684e-001 +6.3472933e-001 +2.9164327e-002 -3.7134247e-004 -1.6629559e-003 +5.2759187e-005 +6.4851559e-004 +6.9026340e-004 +4.7898218e-003 -7.0035234e+003 +6.2971578e+000 -5.3095160e+002 +1.7043661e-001 +0.0000000e+000 +0.0000000e+000 
+1.4767410e+003 +9.6595840e+001 +3.0651422e+000 +2.5916958e+000 +9.8891459e+000 +8.2855329e-002 +8.3590440e-002 +2.0241500e-001 +6.5000966e-002 +6.5073892e-002 +1.0042144e-001 -1.7997967e-001 +1.1951540e-001 -8.5812137e-002 +6.3605684e-001 +6.3472933e-001 +2.9164327e-002 -3.7134247e-004 -1.6629559e-003 +5.2759187e-005 +6.4851559e-004 +6.9026340e-004 +4.7898218e-003 -7.0566016e+003 +6.2977462e+000 -5.3095160e+002 +1.8424304e-001 +0.0000000e+000 +0.0000000e+000 
+1.4768350e+003 +9.6695808e+001 +3.0654402e+000 +2.5921082e+000 +9.8900747e+000 +8.5591450e-002 +8.6768806e-002 +2.0484361e-001 +6.5008372e-002 +6.5085903e-002 +1.0071930e-001 -1.7997967e-001 +1.1951540e-001 -8.5812137e-002 +6.3605684e-001 +6.3472933e-001 +2.9164327e-002 -3.7134247e-004 -1.6629559e-003 +5.2759187e-005 +6.4851559e-004 +6.9026340e-004 +4.7898218e-003 -7.1097163e+003 +6.2983856e+000 -5.3095160e+002 +1.9710171e-001 +0.0000000e+000 +0.0000000e+000 
+1.4769440e+003 +9.6795840e+001 +3.0657651e+000 +2.5925522e+000 +9.8910561e+000 +8.8438846e-002 +8.9815803e-002 +2.0722295e-001 +6.5015838e-002 +6.5097980e-002 +1.0101852e-001 -1.7997967e-001 +1.1951540e-001 -8.5812137e-002 +6.3605684e-001 +6.3472933e-001 +2.9164327e-002 -3.7134247e-004 -1.6629559e-003 +5.2759187e-005 +6.4851559e-004 +6.9026340e-004 +4.7898218e-003 -7.1628267e+003 +6.2990828e+000 -5.3095160e+002 +2.0916961e-001 +0.0000000e+000 +0.0000000e+000 
+1.4770380e+003 +9.6895872e+001 +3.0661192e+000 +2.5930309e+000 +9.8920879e+000 +9.1379300e-002 +9.3091302e-002 +2.0954098e-001 +6.5023378e-002 +6.5110117e-002 +1.0131894e-001 -1.7997967e-001 +1.1951540e-001 -8.5812137e-002 +6.3605684e-001 +6.3472933e-001 +2.9164327e-002 -3.7134247e-004 -1.6629559e-003 +5.2759187e-005 +6.4851559e-004 +6.9026340e-004 +4.7898218e-003 -7.2159048e+003 +6.2998447e+000 -5.3095160e+002 +2.2056469e-001 +0.0000000e+000 +0.0000000e+000 
+1.4771320e+003 +9.6995840e+001 +3.0665052e+000 +2.5935483e+000 +9.8931742e+000 +9.4494075e-002 +9.6505255e-002 +2.1192841e-001 +6.5030999e-002 +6.5122321e-002 +1.0162093e-001 -1.7997967e-001 +1.1951540e-001 -8.5812137e-002 +6.3605684e-001 +6.3472933e-001 +2.9164327e-002 -3.7134247e-004 -1.6629559e-003 +5.2759187e-005 +6.4851559e-004 +6.9026340e-004 +4.7898218e-003 -7.2690195e+003 +6.3006806e+000 -5.3095160e+002 +2.3141386e-001 +0.0000000e+000 +0.0000000e+000 
+1.4772410e+003 +9.7095872e+001 +3.0669258e+000 +2.5941072e+000 +9.8943157e+000 +9.7682767e-002 +1.0000861e-001 +2.1431290e-001 +6.5038674e-002 +6.5134585e-002 +1.0192408e-001 -1.7997967e-001 +1.1951540e-001 -8.5812137e-002 +6.3605684e-001 +6.3472933e-001 +2.9164327e-002 -3.7134247e-004 -1.6629559e-003 +5.2759187e-005 +6.4851559e-004 +6.9026340e-004 +4.7898218e-003 -7.3220977e+003 +6.3015971e+000 -5.3095160e+002 +2.4176277e-001 +0.0000000e+000 +0.0000000e+000 
+1.4773350e+003 +9.7195840e+001 +3.0673842e+000 +2.5947120e+000 +9.8955145e+000 +1.0078753e-001 +1.0367143e-001 +2.1679808e-001 +6.5046437e-002 +6.5146923e-002 +1.0222875e-001 -1.7997967e-001 +1.1951540e-001 -8.5812137e-002 +6.3605684e-001 +6.3472933e-001 +2.9164327e-002 -3.7134247e-004 -1.6629559e-003 +5.2759187e-005 +6.4851559e-004 +6.9026340e-004 +4.7898218e-003 -7.3752080e+003 +6.3026028e+000 -5.3095160e+002 +2.5169837e-001 +0.0000000e+000 +0.0000000e+000 
+1.4774440e+003 +9.7295872e+001 +2.9504178e+000 +2.4999881e+000 +9.5075178e+000 +7.5593963e-002 +7.5315706e-002 +1.8890032e-001 +6.3689426e-002 +6.4136937e-002 +1.0199099e-001 -3.1904626e-001 +2.0422059e-001 -8.9720987e-002 +6.2298316e-001 +6.2583292e-001 +2.6771657e-002 -7.0318830e-004 -1.4965083e-003 +3.1530010e-004 +5.5796292e-004 +5.9756584e-004 +4.7839102e-003 -7.4284546e+003 +6.0554948e+000 -5.3097290e+002 +1.4299947e-001 +0.0000000e+000 +0.0000000e+000 
+1.4775380e+003 +9.7395840e+001 +2.9491227e+000 +2.4939289e+000 +9.5078773e+000 +7.7600062e-002 +7.6432005e-002 +1.9118430e-001 +6.3628554e-002 +6.4010240e-002 +1.0225347e-001 -3.3739397e-001 +2.2314321e-001 -9.0153791e-002 +6.2198758e-001 +6.2477911e-001 +2.6758861e-002 -7.3599070e-004 -1.4572635e-003 +3.5566773e-004 +5.5439898e-004 +5.9280195e-004 +4.7832825e-003 -7.4815151e+003 +6.0556059e+000 -5.3099579e+002 +1.5304105e-001 +0.0000000e+000 +0.0000000e+000 
+1.4776470e+003 +9.7495872e+001 +2.9493961e+000 +2.4942977e+000 +9.5087624e+000 +8.0278508e-002 +7.9235755e-002 +1.9345015e-001 +6.3635923e-002 +6.4020701e-002 +1.0256129e-001 -3.3739397e-001 +2.2314321e-001 -9.0153791e-002 +6.2198758e-001 +6.2477911e-001 +2.6758861e-002 -7.3599070e-004 -1.4572635e-003 +3.5566773e-004 +5.5439898e-004 +5.9280195e-004 +4.7832825e-003 -7.5346343e+003 +6.0561895e+000 -5.3099579e+002 +1.6830078e-001 +0.0000000e+000 +0.0000000e+000 
+1.4777410e+003 +9.7595904e+001 +2.9496930e+000 +2.4946921e+000 +9.5096931e+000 +8.3129860e-002 +8.2325406e-002 +1.9596499e-001 +6.3643321e-002 +6.4031206e-002 +1.0287020e-001 -3.3739397e-001 +2.2314321e-001 -9.0153791e-002 +6.2198758e-001 +6.2477911e-001 +2.6758861e-002 -7.3599070e-004 -1.4572635e-003 +3.5566773e-004 +5.5439898e-004 +5.9280195e-004 +4.7832825e-003 -7.5877168e+003 +6.0568156e+000 -5.3099579e+002 +1.8226907e-001 +0.0000000e+000 +0.0000000e+000 
+1.4778350e+003 +9.7695872e+001 +2.9500155e+000 +2.4951155e+000 +9.5106735e+000 +8.5939288e-002 +8.5398957e-002 +1.9841321e-001 +6.3650794e-002 +6.4041778e-002 +1.0318059e-001 -3.3739397e-001 +2.2314321e-001 -9.0153791e-002 +6.2198758e-001 +6.2477911e-001 +2.6758861e-002 -7.3599070e-004 -1.4572635e-003 +3.5566773e-004 +5.5439898e-004 +5.9280195e-004 +4.7832825e-003 -7.6408315e+003 +6.0574932e+000 -5.3099579e+002 +1.9525586e-001 +0.0000000e+000 +0.0000000e+000 
+1.4779440e+003 +9.7795904e+001 +2.9503660e+000 +2.4955704e+000 +9.5117035e+000 +8.8959299e-002 +8.8612989e-002 +2.0069125e-001 +6.3658312e-002 +6.4052388e-002 +1.0349207e-001 -3.3739397e-001 +2.2314321e-001 -9.0153791e-002 +6.2198758e-001 +6.2477911e-001 +2.6758861e-002 -7.3599070e-004 -1.4572635e-003 +3.5566773e-004 +5.5439898e-004 +5.9280195e-004 +4.7832825e-003 -7.6939141e+003 +6.0582290e+000 -5.3099579e+002 +2.0741676e-001 +0.0000000e+000 +0.0000000e+000 
+1.4780380e+003 +9.7895872e+001 +2.9507475e+000 +2.4960606e+000 +9.5127850e+000 +9.2072122e-002 +9.2002206e-002 +2.0324010e-001 +6.3665897e-002 +6.4063057e-002 +1.0380502e-001 -3.3739397e-001 +2.2314321e-001 -9.0153791e-002 +6.2198758e-001 +6.2477911e-001 +2.6758861e-002 -7.3599070e-004 -1.4572635e-003 +3.5566773e-004 +5.5439898e-004 +5.9280195e-004 +4.7832825e-003 -7.7470332e+003 +6.0590320e+000 -5.3099579e+002 +2.1891849e-001 +0.0000000e+000 +0.0000000e+000 
+1.4781320e+003 +9.7995904e+001 +2.9511623e+000 +2.4965892e+000 +9.5139189e+000 +9.5324107e-002 +9.5501766e-002 +2.0567586e-001 +6.3673526e-002 +6.4073786e-002 +1.0411921e-001 -3.3739397e-001 +2.2314321e-001 -9.0153791e-002 +6.2198758e-001 +6.2477911e-001 +2.6758861e-002 -7.3599070e-004 -1.4572635e-003 +3.5566773e-004 +5.5439898e-004 +5.9280195e-004 +4.7832825e-003 -7.8001479e+003 +6.0599103e+000 -5.3099579e+002 +2.2984374e-001 +0.0000000e+000 +0.0000000e+000 
+1.4782410e+003 +9.8095936e+001 +2.9516134e+000 +2.4971600e+000 +9.5151062e+000 +9.8767594e-002 +9.9111013e-002 +2.0821421e-001 +6.3681215e-002 +6.4084552e-002 +1.0443445e-001 -3.3739397e-001 +2.2314321e-001 -9.0153791e-002 +6.2198758e-001 +6.2477911e-001 +2.6758861e-002 -7.3599070e-004 -1.4572635e-003 +3.5566773e-004 +5.5439898e-004 +5.9280195e-004 +4.7832825e-003 -7.8532305e+003 +6.0608706e+000 -5.3099579e+002 +2.4026027e-001 +0.0000000e+000 +0.0000000e+000 
+1.4783350e+003 +9.8195904e+001 +2.9521048e+000 +2.4977775e+000 +9.5163498e+000 +1.0209198e-001 +1.0268703e-001 +2.1084131e-001 +6.3688956e-002 +6.4095385e-002 +1.0475111e-001 -3.3739397e-001 +2.2314321e-001 -9.0153791e-002 +6.2198758e-001 +6.2477911e-001 +2.6758861e-002 -7.3599070e-004 -1.4572635e-003 +3.5566773e-004 +5.5439898e-004 +5.9280195e-004 +4.7832825e-003 -7.9063452e+003 +6.0619230e+000 -5.3099579e+002 +2.5025555e-001 +0.0000000e+000 +0.0000000e+000 
+1.4784440e+003 +9.8295936e+001 +2.8496027e+000 +2.4148543e+000 +9.1773329e+000 +7.6144241e-002 +7.5107880e-002 +1.8488419e-001 +6.1036244e-002 +6.1780740e-002 +1.0485454e-001 -4.8609167e-001 +3.5644278e-001 -9.1409124e-002 +5.9674978e-001 +6.0366553e-001 +2.4668664e-002 -9.9323294e-004 -1.2893056e-003 +6.1620941e-004 +4.6808613e-004 +5.0705584e-004 +4.7763186e-003 -7.9595381e+003 +5.8457551e+000 -5.3098889e+002 +1.4117353e-001 +0.0000000e+000 +0.0000000e+000 
+1.4785380e+003 +9.8395904e+001 +2.8484976e+000 +2.4095325e+000 +9.1777601e+000 +7.8400053e-002 +7.6393247e-002 +1.8723698e-001 +6.0943279e-002 +6.1510678e-002 +1.0514851e-001 -4.9679771e-001 +3.7040386e-001 -9.1535591e-002 +5.9537327e-001 +6.0134691e-001 +2.4664154e-002 -1.0074985e-003 -1.2717729e-003 +6.3426024e-004 +4.6495505e-004 +5.0268881e-004 +4.7758291e-003 -8.0126494e+003 +5.8459535e+000 -5.3100012e+002 +1.5175515e-001 +0.0000000e+000 +0.0000000e+000 
+1.4786470e+003 +9.8495936e+001 +2.8487902e+000 +2.4099102e+000 +9.1786976e+000 +8.1151269e-002 +7.9303600e-002 +1.8979201e-001 +6.0949970e-002 +6.1518937e-002 +1.0546733e-001 -4.9679771e-001 +3.7040386e-001 -9.1535591e-002 +5.9537327e-001 +6.0134691e-001 +2.4664154e-002 -1.0074985e-003 -1.2717729e-003 +6.3426024e-004 +4.6495505e-004 +5.0268881e-004 +4.7758291e-003 -8.0657324e+003 +5.8465714e+000 -5.3100012e+002 +1.6711220e-001 +0.0000000e+000 +0.0000000e+000 
+1.4787410e+003 +9.8595904e+001 +2.8491075e+000 +2.4103143e+000 +9.1796827e+000 +8.4190451e-002 +8.2321875e-002 +1.9265029e-001 +6.0956709e-002 +6.1527237e-002 +1.0578755e-001 -4.9679771e-001 +3.7040386e-001 -9.1535591e-002 +5.9537327e-001 +6.0134691e-001 +2.4664154e-002 -1.0074985e-003 -1.2717729e-003 +6.3426024e-004 +4.6495505e-004 +5.0268881e-004 +4.7758291e-003 -8.1188477e+003 +5.8472333e+000 -5.3100012e+002 +1.8118866e-001 +0.0000000e+000 +0.0000000e+000 
+1.4788350e+003 +9.8695936e+001 +2.8494518e+000 +2.4107480e+000 +9.1807156e+000 +8.7224834e-002 +8.5487589e-002 +1.9538155e-001 +6.0963497e-002 +6.1535589e-002 +1.0610896e-001 -4.9679771e-001 +3.7040386e-001 -9.1535591e-002 +5.9537327e-001 +6.0134691e-001 +2.4664154e-002 -1.0074985e-003 -1.2717729e-003 +6.3426024e-004 +4.6495505e-004 +5.0268881e-004 +4.7758291e-003 -8.1719673e+003 +5.8479481e+000 -5.3100012e+002 +1.9424963e-001 +0.0000000e+000 +0.0000000e+000 
+1.4789440e+003 +9.8795968e+001 +2.8498256e+000 +2.4112139e+000 +9.1817970e+000 +9.0133503e-002 +8.8664800e-002 +1.9785599e-001 +6.0970321e-002 +6.1543979e-002 +1.0643132e-001 -4.9679771e-001 +3.7040386e-001 -9.1535591e-002 +5.9537327e-001 +6.0134691e-001 +2.4664154e-002 -1.0074985e-003 -1.2717729e-003 +6.3426024e-004 +4.6495505e-004 +5.0268881e-004 +4.7758291e-003 -8.2250498e+003 +5.8487220e+000 -5.3100012e+002 +2.0646980e-001 +0.0000000e+000 +0.0000000e+000 
+1.4790380e+003 +9.8895936e+001 +2.8502316e+000 +2.4117157e+000 +9.1829300e+000 +9.3348324e-002 +9.2009105e-002 +2.0067625e-001 +6.0977191e-002 +6.1552417e-002 +1.0675503e-001 -4.9679771e-001 +3.7040386e-001 -9.1535591e-002 +5.9537327e-001 +6.0134691e-001 +2.4664154e-002 -1.0074985e-003 -1.2717729e-003 +6.3426024e-004 +4.6495505e-004 +5.0268881e-004 +4.7758291e-003 -8.2781650e+003 +5.8495646e+000 -5.3100012e+002 +2.1801977e-001 +0.0000000e+000 +0.0000000e+000 
+1.4791320e+003 +9.8995968e+001 +2.8506727e+000 +2.4122570e+000 +9.1841164e+000 +9.6658900e-002 +9.5488451e-002 +2.0335762e-001 +6.0984097e-002 +6.1560899e-002 +1.0707968e-001 -4.9679771e-001 +3.7040386e-001 -9.1535591e-002 +5.9537327e-001 +6.0134691e-001 +2.4664154e-002 -1.0074985e-003 -1.2717729e-003 +6.3426024e-004 +4.6495505e-004 +5.0268881e-004 +4.7758291e-003 -8.3312480e+003 +5.8504834e+000 -5.3100012e+002 +2.2897485e-001 +0.0000000e+000 +0.0000000e+000 
+1.4792410e+003 +9.9095936e+001 +2.8511527e+000 +2.4128418e+000 +9.1853571e+000 +1.0010955e-001 +9.9050954e-002 +2.0618892e-001 +6.0991053e-002 +6.1569434e-002 +1.0740567e-001 -4.9679771e-001 +3.7040386e-001 -9.1535591e-002 +5.9537327e-001 +6.0134691e-001 +2.4664154e-002 -1.0074985e-003 -1.2717729e-003 +6.3426024e-004 +4.6495505e-004 +5.0268881e-004 +4.7758291e-003 -8.3843633e+003 +5.8514886e+000 -5.3100012e+002 +2.3944169e-001 +0.0000000e+000 +0.0000000e+000 
+1.4793350e+003 +9.9195968e+001 +2.8516748e+000 +2.4134748e+000 +9.1866550e+000 +1.0370977e-001 +1.0263368e-001 +2.0920125e-001 +6.0998056e-002 +6.1578020e-002 +1.0773281e-001 -4.9679771e-001 +3.7040386e-001 -9.1535591e-002 +5.9537327e-001 +6.0134691e-001 +2.4664154e-002 -1.0074985e-003 -1.2717729e-003 +6.3426024e-004 +4.6495505e-004 +5.0268881e-004 +4.7758291e-003 -8.4374824e+003 +5.8525877e+000 -5.3100012e+002 +2.4947126e-001 +0.0000000e+000 +0.0000000e+000 
+1.4794440e+003 +9.9296000e+001 +2.7608600e+000 +2.3400578e+000 +8.8870535e+000 +7.6756068e-002 +7.5049832e-002 +1.8328077e-001 +5.7566673e-002 +5.8421399e-002 +1.0738683e-001 -5.7695711e-001 +4.6512401e-001 -9.1835015e-002 +5.6306881e-001 +5.7157385e-001 +2.2829017e-002 -1.1182246e-003 -1.1798249e-003 +8.0728205e-004 +3.8966839e-004 +4.2867669e-004 +4.7533261e-003 -8.4906094e+003 +5.6613455e+000 -5.3099939e+002 +1.4055003e-001 +0.0000000e+000 +0.0000000e+000 
+1.4795380e+003 +9.9395968e+001 +2.7599113e+000 +2.3353446e+000 +8.8875532e+000 +7.8775905e-002 +7.5981654e-002 +1.8601130e-001 +5.7487454e-002 +5.8073685e-002 +1.0770428e-001 -5.9036916e-001 +4.8684323e-001 -9.1852494e-002 +5.6188482e-001 +5.6850702e-001 +2.2828966e-002 -1.1335639e-003 -1.1597233e-003 +8.2980684e-004 +3.8742129e-004 +4.2516561e-004 +4.7529303e-003 -8.5437129e+003 +5.6616206e+000 -5.3101459e+002 +1.5148565e-001 +0.0000000e+000 +0.0000000e+000 
+1.4796470e+003 +9.9496000e+001 +2.7602208e+000 +2.3357308e+000 +8.8885403e+000 +8.1512012e-002 +7.8824200e-002 +1.8873583e-001 +5.7493221e-002 +5.8080379e-002 +1.0803104e-001 -5.9036916e-001 +4.8684323e-001 -9.1852494e-002 +5.6188482e-001 +5.6850702e-001 +2.2828966e-002 -1.1335639e-003 -1.1597233e-003 +8.2980684e-004 +3.8742129e-004 +4.2516561e-004 +4.7529303e-003 -8.5967969e+003 +5.6622701e+000 -5.3101459e+002 +1.6686751e-001 +0.0000000e+000 +0.0000000e+000 
+1.4797410e+003 +9.9596096e+001 +2.7605555e+000 +2.3361440e+000 +8.8895750e+000 +8.4457457e-002 +8.1824243e-002 +1.9158381e-001 +5.7499025e-002 +5.8087118e-002 +1.0835911e-001 -5.9036916e-001 +4.8684323e-001 -9.1852494e-002 +5.6188482e-001 +5.6850702e-001 +2.2828966e-002 -1.1335639e-003 -1.1597233e-003 +8.2980684e-004 +3.8742129e-004 +4.2516561e-004 +4.7529303e-003 -8.6499180e+003 +5.6629648e+000 -5.3101459e+002 +1.8096507e-001 +0.0000000e+000 +0.0000000e+000 
+1.4798350e+003 +9.9696000e+001 +2.7609181e+000 +2.3365865e+000 +8.8906584e+000 +8.7352306e-002 +8.4685594e-002 +1.9467707e-001 +5.7504866e-002 +5.8093898e-002 +1.0868824e-001 -5.9036916e-001 +4.8684323e-001 -9.1852494e-002 +5.6188482e-001 +5.6850702e-001 +2.2828966e-002 -1.1335639e-003 -1.1597233e-003 +8.2980684e-004 +3.8742129e-004 +4.2516561e-004 +4.7529303e-003 -8.7030352e+003 +5.6637135e+000 -5.3101459e+002 +1.9403917e-001 +0.0000000e+000 +0.0000000e+000 
+1.4799450e+003 +9.9796032e+001 +2.7613108e+000 +2.3370616e+000 +8.8917904e+000 +9.0353720e-002 +8.7595694e-002 +1.9784969e-001 +5.7510745e-002 +5.8100712e-002 +1.0901824e-001 -5.9036916e-001 +4.8684323e-001 -9.1852494e-002 +5.6188482e-001 +5.6850702e-001 +2.2828966e-002 -1.1335639e-003 -1.1597233e-003 +8.2980684e-004 +3.8742129e-004 +4.2516561e-004 +4.7529303e-003 -8.7561191e+003 +5.6645231e+000 -5.3101459e+002 +2.0627180e-001 +0.0000000e+000 +0.0000000e+000 
+1.4800380e+003 +9.9896000e+001 +2.7617369e+000 +2.3375728e+000 +8.8929768e+000 +9.3342915e-002 +9.0647861e-002 +2.0091633e-001 +5.7516668e-002 +5.8107570e-002 +1.0934949e-001 -5.9036916e-001 +4.8684323e-001 -9.1852494e-002 +5.6188482e-001 +5.6850702e-001 +2.2828966e-002 -1.1335639e-003 -1.1597233e-003 +8.2980684e-004 +3.8742129e-004 +4.2516561e-004 +4.7529303e-003 -8.8092363e+003 +5.6654038e+000 -5.3101459e+002 +2.1783228e-001 +0.0000000e+000 +0.0000000e+000 
+1.4801320e+003 +9.9996032e+001 +2.7621987e+000 +2.3381226e+000 +8.8942165e+000 +9.6429273e-002 +9.3845300e-002 +2.0389806e-001 +5.7522621e-002 +5.8114462e-002 +1.0968159e-001 -5.9036916e-001 +4.8684323e-001 -9.1852494e-002 +5.6188482e-001 +5.6850702e-001 +2.2828966e-002 -1.1335639e-003 -1.1597233e-003 +8.2980684e-004 +3.8742129e-004 +4.2516561e-004 +4.7529303e-003 -8.8623203e+003 +5.6663632e+000 -5.3101459e+002 +2.2879633e-001 +0.0000000e+000 +0.0000000e+000 
+1.4802410e+003 +1.0009600e+002 +2.7626996e+000 +2.3387158e+000 +8.8955135e+000 +9.9961184e-002 +9.7164765e-002 +2.0721903e-001 +5.7528619e-002 +5.8121398e-002 +1.1001495e-001 -5.9036916e-001 +4.8684323e-001 -9.1852494e-002 +5.6188482e-001 +5.6850702e-001 +2.2828966e-002 -1.1335639e-003 -1.1597233e-003 +8.2980684e-004 +3.8742129e-004 +4.2516561e-004 +4.7529303e-003 -8.9154414e+003 +5.6674113e+000 -5.3101459e+002 +2.3927253e-001 +0.0000000e+000 +0.0000000e+000 
+1.4803350e+003 +1.0019603e+002 +2.7632434e+000 +2.3393552e+000 +8.8968687e+000 +1.0313328e-001 +1.0067602e-001 +2.1002217e-001 +5.7534654e-002 +5.8128372e-002 +1.1034913e-001 -5.9036916e-001 +4.8684323e-001 -9.1852494e-002 +5.6188482e-001 +5.6850702e-001 +2.2828966e-002 -1.1335639e-003 -1.1597233e-003 +8.2980684e-004 +3.8742129e-004 +4.2516561e-004 +4.7529303e-003 -8.9685254e+003 +5.6685557e+000 -5.3101459e+002 +2.4929543e-001 +0.0000000e+000 +0.0000000e+000 
+1.4804440e+003 +1.0029606e+002 +2.6820428e+000 +2.2737501e+000 +8.6295261e+000 +7.6522551e-002 +7.4253507e-002 +1.8330766e-001 +5.4099105e-002 +5.4997023e-002 +1.0952102e-001 -6.1559761e-001 +5.5441916e-001 -9.0375744e-002 +5.2960342e-001 +5.3814673e-001 +2.1344228e-002 -1.1734738e-003 -1.0881150e-003 +9.7695284e-004 +3.2989439e-004 +3.7040634e-004 +4.7144531e-003 -9.0217344e+003 +5.4977336e+000 -5.3102795e+002 +1.4067550e-001 +0.0000000e+000 +0.0000000e+000 
+1.4805380e+003 +1.0039603e+002 +2.6812274e+000 +2.2695446e+000 +8.6301003e+000 +7.8412369e-002 +7.5255238e-002 +1.8578012e-001 +5.4021824e-002 +5.4732345e-002 +1.0984451e-001 -6.2081826e-001 +5.6205720e-001 -9.0360224e-002 +5.2849889e-001 +5.3580755e-001 +2.1343917e-002 -1.1783709e-003 -1.0818333e-003 +9.8964269e-004 +3.2831982e-004 +3.6809660e-004 +4.7137174e-003 -9.0748535e+003 +5.4980769e+000 -5.3103418e+002 +1.5174742e-001 +0.0000000e+000 +0.0000000e+000 
+1.4806470e+003 +1.0049606e+002 +2.6815534e+000 +2.2699397e+000 +8.6311340e+000 +8.0979593e-002 +7.7803679e-002 +1.8873449e-001 +5.4027122e-002 +5.4738522e-002 +1.1017643e-001 -6.2081826e-001 +5.6205720e-001 -9.0360224e-002 +5.2849889e-001 +5.3580755e-001 +2.1343917e-002 -1.1783709e-003 -1.0818333e-003 +9.8964269e-004 +3.2831982e-004 +3.6809660e-004 +4.7137174e-003 -9.1279395e+003 +5.4987555e+000 -5.3103418e+002 +1.6710517e-001 +0.0000000e+000 +0.0000000e+000 
+1.4807410e+003 +1.0059603e+002 +2.6819048e+000 +2.2703624e+000 +8.6322165e+000 +8.3730698e-002 +8.0547698e-002 +1.9171819e-001 +5.4032464e-002 +5.4744739e-002 +1.1050957e-001 -6.2081826e-001 +5.6205720e-001 -9.0360224e-002 +5.2849889e-001 +5.3580755e-001 +2.1343917e-002 -1.1783709e-003 -1.0818333e-003 +9.8964269e-004 +3.2831982e-004 +3.6809660e-004 +4.7137174e-003 -9.1810586e+003 +5.4994807e+000 -5.3103418e+002 +1.8118218e-001 +0.0000000e+000 +0.0000000e+000 
+1.4808350e+003 +1.0069606e+002 +2.6822841e+000 +2.2708139e+000 +8.6333485e+000 +8.6472891e-002 +8.3189130e-002 +1.9486959e-001 +5.4037835e-002 +5.4750986e-002 +1.1084348e-001 -6.2081826e-001 +5.6205720e-001 -9.0360224e-002 +5.2849889e-001 +5.3580755e-001 +2.1343917e-002 -1.1783709e-003 -1.0818333e-003 +9.8964269e-004 +3.2831982e-004 +3.6809660e-004 +4.7137174e-003 -9.2341445e+003 +5.5002608e+000 -5.3103418e+002 +1.9422626e-001 +0.0000000e+000 +0.0000000e+000 
+1.4809450e+003 +1.0079603e+002 +2.6826940e+000 +2.2712982e+000 +8.6345310e+000 +8.9113146e-002 +8.5846692e-002 +1.9793592e-001 +5.4043248e-002 +5.4757264e-002 +1.1117858e-001 -6.2081826e-001 +5.6205720e-001 -9.0360224e-002 +5.2849889e-001 +5.3580755e-001 +2.1343917e-002 -1.1783709e-003 -1.0818333e-003 +9.8964269e-004 +3.2831982e-004 +3.6809660e-004 +4.7137174e-003 -9.2872637e+003 +5.5011053e+000 -5.3103418e+002 +2.0646231e-001 +0.0000000e+000 +0.0000000e+000 
+1.4810380e+003 +1.0089606e+002 +2.6831367e+000 +2.2718174e+000 +8.6357679e+000 +9.2011906e-002 +8.8626035e-002 +2.0116745e-001 +5.4048695e-002 +5.4763582e-002 +1.1151469e-001 -6.2081826e-001 +5.6205720e-001 -9.0360224e-002 +5.2849889e-001 +5.3580755e-001 +2.1343917e-002 -1.1783709e-003 -1.0818333e-003 +9.8964269e-004 +3.2831982e-004 +3.6809660e-004 +4.7137174e-003 -9.3403867e+003 +5.5020232e+000 -5.3103418e+002 +2.1801439e-001 +0.0000000e+000 +0.0000000e+000 
+1.4811320e+003 +1.0099610e+002 +2.6836150e+000 +2.2723749e+000 +8.6370602e+000 +9.5150620e-002 +9.1505975e-002 +2.0453881e-001 +5.4054175e-002 +5.4769926e-002 +1.1185152e-001 -6.2081826e-001 +5.6205720e-001 -9.0360224e-002 +5.2849889e-001 +5.3580755e-001 +2.1343917e-002 -1.1783709e-003 -1.0818333e-003 +9.8964269e-004 +3.2831982e-004 +3.6809660e-004 +4.7137174e-003 -9.3934727e+003 +5.5030222e+000 -5.3103418e+002 +2.2896972e-001 +0.0000000e+000 +0.0000000e+000 
+1.4812410e+003 +1.0109606e+002 +2.6841326e+000 +2.2729743e+000 +8.6384115e+000 +9.8127067e-002 +9.4512641e-002 +2.0758724e-001 +5.4059695e-002 +5.4776315e-002 +1.1218952e-001 -6.2081826e-001 +5.6205720e-001 -9.0360224e-002 +5.2849889e-001 +5.3580755e-001 +2.1343917e-002 -1.1783709e-003 -1.0818333e-003 +9.8964269e-004 +3.2831982e-004 +3.6809660e-004 +4.7137174e-003 -9.4465918e+003 +5.5041122e+000 -5.3103418e+002 +2.3943679e-001 +0.0000000e+000 +0.0000000e+000 
+1.4813350e+003 +1.0119610e+002 +2.6846917e+000 +2.2736185e+000 +8.6398211e+000 +1.0136466e-001 +9.7578391e-002 +2.1089701e-001 +5.4065246e-002 +5.4782726e-002 +1.1252826e-001 -6.2081826e-001 +5.6205720e-001 -9.0360224e-002 +5.2849889e-001 +5.3580755e-001 +2.1343917e-002 -1.1783709e-003 -1.0818333e-003 +9.8964269e-004 +3.2831982e-004 +3.6809660e-004 +4.7137174e-003 -9.4996777e+003 +5.5053010e+000 -5.3103418e+002 +2.4945307e-001 +0.0000000e+000 +0.0000000e+000 
+1.4814440e+003 +1.0129606e+002 +2.6115065e+000 +2.2145057e+000 +8.3992758e+000 +7.5547047e-002 +7.2658077e-002 +1.8403566e-001 +5.1192470e-002 +5.1996522e-002 +1.1072902e-001 -6.0142571e-001 +5.9271151e-001 -8.9494564e-002 +5.0149739e-001 +5.0835335e-001 +2.0222111e-002 -1.1559097e-003 -1.0469118e-003 +9.0229092e-004 +2.8633670e-004 +3.2989707e-004 +4.6415511e-003 -9.5528887e+003 +5.3514423e+000 -5.3105896e+002 +1.4089693e-001 +0.0000000e+000 +0.0000000e+000 
+1.4815380e+003 +1.0139610e+002 +2.6108048e+000 +2.2107317e+000 +8.3999166e+000 +7.7041030e-002 +7.3369227e-002 +1.8636759e-001 +5.1151015e-002 +5.1776830e-002 +1.1102143e-001 -6.0311425e-001 +5.9562510e-001 -8.9474045e-002 +5.0084209e-001 +5.0639880e-001 +2.0219296e-002 -1.1575811e-003 -1.0449570e-003 +9.1243762e-004 +2.8518122e-004 +3.2852506e-004 +4.6389271e-003 -9.6059814e+003 +5.3518429e+000 -5.3106158e+002 +1.5191370e-001 +0.0000000e+000 +0.0000000e+000 
+1.4816480e+003 +1.0149606e+002 +2.6111472e+000 +2.2111380e+000 +8.4009981e+000 +7.9275653e-002 +7.5783074e-002 +1.8889695e-001 +5.1156297e-002 +5.1783018e-002 +1.1135370e-001 -6.0311425e-001 +5.9562510e-001 -8.9474045e-002 +5.0084209e-001 +5.0639880e-001 +2.0219296e-002 -1.1575811e-003 -1.0449570e-003 +9.1243762e-004 +2.8518122e-004 +3.2852506e-004 +4.6389271e-003 -9.6591025e+003 +5.3525510e+000 -5.3106158e+002 +1.6727406e-001 +0.0000000e+000 +0.0000000e+000 
+1.4817410e+003 +1.0159610e+002 +2.6115143e+000 +2.2115705e+000 +8.4021273e+000 +8.1485875e-002 +7.8216277e-002 +1.9143063e-001 +5.1161613e-002 +5.1789235e-002 +1.1168692e-001 -6.0311425e-001 +5.9562510e-001 -8.9474045e-002 +5.0084209e-001 +5.0639880e-001 +2.0219296e-002 -1.1575811e-003 -1.0449570e-003 +9.1243762e-004 +2.8518122e-004 +3.2852506e-004 +4.6389271e-003 -9.7122236e+003 +5.3533063e+000 -5.3106158e+002 +1.8133795e-001 +0.0000000e+000 +0.0000000e+000 
+1.4818350e+003 +1.0169613e+002 +2.6119089e+000 +2.2120314e+000 +8.4033070e+000 +8.4042154e-002 +8.0731176e-002 +1.9441761e-001 +5.1166959e-002 +5.1795479e-002 +1.1202084e-001 -6.0311425e-001 +5.9562510e-001 -8.9474045e-002 +5.0084209e-001 +5.0639880e-001 +2.0219296e-002 -1.1575811e-003 -1.0449570e-003 +9.1243762e-004 +2.8518122e-004 +3.2852506e-004 +4.6389271e-003 -9.7653125e+003 +5.3541183e+000 -5.3106158e+002 +1.9437160e-001 +0.0000000e+000 +0.0000000e+000 
+1.4819440e+003 +1.0179610e+002 +2.6123331e+000 +2.2125242e+000 +8.4045401e+000 +8.6419627e-002 +8.3213896e-002 +1.9717316e-001 +5.1172350e-002 +5.1801745e-002 +1.1235590e-001 -6.0311425e-001 +5.9562510e-001 -8.9474045e-002 +5.0084209e-001 +5.0639880e-001 +2.0219296e-002 -1.1575811e-003 -1.0449570e-003 +9.1243762e-004 +2.8518122e-004 +3.2852506e-004 +4.6389271e-003 -9.8184385e+003 +5.3549967e+000 -5.3106158e+002 +2.0660083e-001 +0.0000000e+000 +0.0000000e+000 
+1.4820380e+003 +1.0189613e+002 +2.6127889e+000 +2.2130504e+000 +8.4058256e+000 +8.8798627e-002 +8.5590951e-002 +2.0014066e-001 +5.1177766e-002 +5.1808041e-002 +1.1269163e-001 -6.0311425e-001 +5.9562510e-001 -8.9474045e-002 +5.0084209e-001 +5.0639880e-001 +2.0219296e-002 -1.1575811e-003 -1.0449570e-003 +9.1243762e-004 +2.8518122e-004 +3.2852506e-004 +4.6389271e-003 -9.8715273e+003 +5.3559494e+000 -5.3106158e+002 +2.1813016e-001 +0.0000000e+000 +0.0000000e+000 
+1.4821320e+003 +1.0199610e+002 +2.6132786e+000 +2.2136133e+000 +8.4071684e+000 +9.1669850e-002 +8.8078104e-002 +2.0355184e-001 +5.1183220e-002 +5.1814366e-002 +1.1302847e-001 -6.0311425e-001 +5.9562510e-001 -8.9474045e-002 +5.0084209e-001 +5.0639880e-001 +2.0219296e-002 -1.1575811e-003 -1.0449570e-003 +9.1243762e-004 +2.8518122e-004 +3.2852506e-004 +4.6389271e-003 -9.9246484e+003 +5.3569870e+000 -5.3106158e+002 +2.2909300e-001 +0.0000000e+000 +0.0000000e+000 
+1.4822410e+003 +1.0209613e+002 +2.6138055e+000 +2.2142158e+000 +8.4085703e+000 +9.4147608e-002 +9.0634286e-002 +2.0652947e-001 +5.1188711e-002 +5.1820718e-002 +1.1336620e-001 -6.0311425e-001 +5.9562510e-001 -8.9474045e-002 +5.0084209e-001 +5.0639880e-001 +2.0219296e-002 -1.1575811e-003 -1.0449570e-003 +9.1243762e-004 +2.8518122e-004 +3.2852506e-004 +4.6389271e-003 -9.9777695e+003 +5.3581171e+000 -5.3106158e+002 +2.3955467e-001 +0.0000000e+000 +0.0000000e+000 
+1.4823350e+003 +1.0219616e+002 +2.6143711e+000 +2.2148604e+000 +8.4100323e+000 +9.6793726e-002 +9.3300886e-002 +2.0942806e-001 +5.1194228e-002 +5.1827088e-002 +1.1370461e-001 -6.0311425e-001 +5.9562510e-001 -8.9474045e-002 +5.0084209e-001 +5.0639880e-001 +2.0219296e-002 -1.1575811e-003 -1.0449570e-003 +9.1243762e-004 +2.8518122e-004 +3.2852506e-004 +4.6389271e-003 -1.0030858e+004 +5.3593493e+000 -5.3106158e+002 +2.4956623e-001 +0.0000000e+000 +0.0000000e+000 
+1.4824440e+003 +1.0229613e+002 +2.5479565e+000 +2.1612165e+000 +8.1920052e+000 +7.3880762e-002 +7.0833728e-002 +1.8321162e-001 +4.9090300e-002 +4.9565498e-002 +1.1206850e-001 -5.6035447e-001 +5.9165204e-001 -8.8154331e-002 +4.8146519e-001 +4.8433599e-001 +1.9452099e-002 -1.1265734e-003 -1.0253019e-003 +7.8505185e-004 +2.5661837e-004 +3.0313837e-004 +4.5594256e-003 -1.0084079e+004 +5.2197452e+000 -5.3106799e+002 +1.4055444e-001 +0.0000000e+000 +0.0000000e+000 
+1.4825380e+003 +1.0239616e+002 +2.5473545e+000 +2.1578126e+000 +8.1927090e+000 +7.5190470e-002 +7.1490593e-002 +1.8528329e-001 +4.9081463e-002 +4.9402487e-002 +1.1235525e-001 -5.6124330e-001 +5.9385657e-001 -8.8128857e-002 +4.8123294e-001 +4.8287383e-001 +1.9446760e-002 -1.1277179e-003 -1.0239873e-003 +7.9571852e-004 +2.5586219e-004 +3.0229526e-004 +4.5557129e-003 -1.0137201e+004 +5.2201982e+000 -5.3107043e+002 +1.5133247e-001 +0.0000000e+000 +0.0000000e+000 
+1.4826480e+003 +1.0249619e+002 +2.5477128e+000 +2.1582308e+000 +8.1938372e+000 +7.7114642e-002 +7.3610283e-002 +1.8757951e-001 +4.9086124e-002 +4.9408507e-002 +1.1268652e-001 -5.6124330e-001 +5.9385657e-001 -8.8128857e-002 +4.8123294e-001 +4.8287383e-001 +1.9446760e-002 -1.1277179e-003 -1.0239873e-003 +7.9571852e-004 +2.5586219e-004 +3.0229526e-004 +4.5557129e-003 -1.0190291e+004 +5.2209358e+000 -5.3107043e+002 +1.6672845e-001 +0.0000000e+000 +0.0000000e+000 
+1.4827410e+003 +1.0259616e+002 +2.5480964e+000 +2.1586742e+000 +8.1950150e+000 +7.9202525e-002 +7.5898781e-002 +1.8988256e-001 +4.9090814e-002 +4.9414556e-002 +1.1301887e-001 -5.6124330e-001 +5.9385657e-001 -8.8128857e-002 +4.8123294e-001 +4.8287383e-001 +1.9446760e-002 -1.1277179e-003 -1.0239873e-003 +7.9571852e-004 +2.5586219e-004 +3.0229526e-004 +4.5557129e-003 -1.0243418e+004 +5.2217226e+000 -5.3107043e+002 +1.8083684e-001 +0.0000000e+000 +0.0000000e+000 
+1.4828350e+003 +1.0269619e+002 +2.5485058e+000 +2.1591456e+000 +8.1962423e+000 +8.1265174e-002 +7.7965669e-002 +1.9249652e-001 +4.9095530e-002 +4.9420625e-002 +1.1335184e-001 -5.6124330e-001 +5.9385657e-001 -8.8128857e-002 +4.8123294e-001 +4.8287383e-001 +1.9446760e-002 -1.1277179e-003 -1.0239873e-003 +7.9571852e-004 +2.5586219e-004 +3.0229526e-004 +4.5557129e-003 -1.0296508e+004 +5.2225666e+000 -5.3107043e+002 +1.9390416e-001 +0.0000000e+000 +0.0000000e+000 
+1.4829290e+003 +1.0279616e+002 +2.5489438e+000 +2.1596470e+000 +8.1975231e+000 +8.3631486e-002 +8.0102600e-002 +1.9534507e-001 +4.9100276e-002 +4.9426712e-002 +1.1368585e-001 -5.6124330e-001 +5.9385657e-001 -8.8128857e-002 +4.8123294e-001 +4.8287383e-001 +1.9446760e-002 -1.1277179e-003 -1.0239873e-003 +7.9571852e-004 +2.5586219e-004 +3.0229526e-004 +4.5557129e-003 -1.0349630e+004 +5.2234783e+000 -5.3107043e+002 +2.0615932e-001 +0.0000000e+000 +0.0000000e+000 
+1.4830380e+003 +1.0289626e+002 +2.5494118e+000 +2.1601806e+000 +8.1988583e+000 +8.5631303e-002 +8.2293324e-002 +1.9778819e-001 +4.9105048e-002 +4.9432814e-002 +1.1402071e-001 -5.6124330e-001 +5.9385657e-001 -8.8128857e-002 +4.8123294e-001 +4.8287383e-001 +1.9446760e-002 -1.1277179e-003 -1.0239873e-003 +7.9571852e-004 +2.5586219e-004 +3.0229526e-004 +4.5557129e-003 -1.0402752e+004 +5.2244663e+000 -5.3107043e+002 +2.1772575e-001 +0.0000000e+000 +0.0000000e+000 
+1.4831320e+003 +1.0299616e+002 +2.5499120e+000 +2.1607487e+000 +8.2002487e+000 +8.7776944e-002 +8.4387667e-002 +2.0050307e-001 +4.9109850e-002 +4.9438942e-002 +1.1435618e-001 -5.6124330e-001 +5.9385657e-001 -8.8128857e-002 +4.8123294e-001 +4.8287383e-001 +1.9446760e-002 -1.1277179e-003 -1.0239873e-003 +7.9571852e-004 +2.5586219e-004 +3.0229526e-004 +4.5557129e-003 -1.0455842e+004 +5.2255397e+000 -5.3107043e+002 +2.2869492e-001 +0.0000000e+000 +0.0000000e+000 
+1.4832410e+003 +1.0309619e+002 +2.5504465e+000 +2.1613538e+000 +8.2016973e+000 +8.9781001e-002 +8.6457863e-002 +2.0317523e-001 +4.9114682e-002 +4.9445085e-002 +1.1469271e-001 -5.6124330e-001 +5.9385657e-001 -8.8128857e-002 +4.8123294e-001 +4.8287383e-001 +1.9446760e-002 -1.1277179e-003 -1.0239873e-003 +7.9571852e-004 +2.5586219e-004 +3.0229526e-004 +4.5557129e-003 -1.0508969e+004 +5.2267089e+000 -5.3107043e+002 +2.3917557e-001 +0.0000000e+000 +0.0000000e+000 
+1.4833350e+003 +1.0319622e+002 +2.5510168e+000 +2.1619980e+000 +8.2032051e+000 +9.4848037e-002 +9.1826268e-002 +2.0488383e-001 +4.9119551e-002 +4.9451251e-002 +1.1502982e-001 -5.6124330e-001 +5.9385657e-001 -8.8128857e-002 +4.8123294e-001 +4.8287383e-001 +1.9446760e-002 -1.1277179e-003 -1.0239873e-003 +7.9571852e-004 +2.5586219e-004 +3.0229526e-004 +4.5557129e-003 -1.0562059e+004 +5.2279820e+000 -5.3107043e+002 +2.4920236e-001 +0.0000000e+000 +0.0000000e+000 
+1.4834450e+003 +1.0329619e+002 +2.4903729e+000 +2.1130280e+000 +8.0043106e+000 +8.8775851e-002 +8.4291905e-002 +1.7913821e-001 +4.7241703e-002 +4.6915419e-002 +1.1343397e-001 -5.5362326e-001 +5.7971120e-001 -8.8415898e-002 +4.6503836e-001 +4.5975319e-001 +1.8820506e-002 -1.1064919e-003 -1.0172921e-003 +6.3038454e-004 +2.3333567e-004 +2.8414195e-004 +4.4771712e-003 -1.0615237e+004 +5.1004853e+000 -5.3108685e+002 +1.3935877e-001 +0.0000000e+000 +0.0000000e+000 
+1.4835380e+003 +1.0339622e+002 +2.4898522e+000 +2.1099565e+000 +8.0050716e+000 +1.0991853e-001 +1.0372403e-001 +1.7976807e-001 +4.6454657e-002 +4.4830147e-002 +1.1371791e-001 -5.5612707e-001 +5.7567382e-001 -8.8518009e-002 +4.5775089e-001 +4.3979135e-001 +1.8521493e-002 -1.1057488e-003 -1.0173314e-003 +6.2542985e-004 +2.3204485e-004 +2.8413886e-004 +4.4742203e-003 -1.0668332e+004 +5.1009855e+000 -5.3108563e+002 +1.5074989e-001 +0.0000000e+000 +0.0000000e+000 
+1.4836480e+003 +1.0349619e+002 +2.4902215e+000 +2.1103635e+000 +8.0062485e+000 +1.3773346e-001 +1.3153042e-001 +1.8097176e-001 +4.6457317e-002 +4.4833805e-002 +1.1404867e-001 -5.5612707e-001 +5.7567382e-001 -8.8518009e-002 +4.5775089e-001 +4.3979135e-001 +1.8521493e-002 -1.1057488e-003 -1.0173314e-003 +6.2542985e-004 +2.3204485e-004 +2.8413886e-004 +4.4742203e-003 -1.0721460e+004 +5.1017528e+000 -5.3108563e+002 +1.6622008e-001 +0.0000000e+000 +0.0000000e+000 
+1.4837410e+003 +1.0359622e+002 +2.4906573e+000 +2.1108348e+000 +8.0074730e+000 +1.6717534e-001 +1.6094989e-001 +1.8201323e-001 +4.6460010e-002 +4.4837497e-002 +1.1438020e-001 -5.5612707e-001 +5.7567382e-001 -8.8518009e-002 +4.5775089e-001 +4.3979135e-001 +1.8521493e-002 -1.1057488e-003 -1.0173314e-003 +6.2542985e-004 +2.3204485e-004 +2.8413886e-004 +4.4742203e-003 -1.0774584e+004 +5.1025691e+000 -5.3108563e+002 +1.8036619e-001 +0.0000000e+000 +0.0000000e+000 
+1.4838350e+003 +1.0369626e+002 +2.4912059e+000 +2.1114240e+000 +8.0087442e+000 +1.9773105e-001 +1.9150619e-001 +1.8306969e-001 +4.6462733e-002 +4.4841226e-002 +1.1471234e-001 -5.5612707e-001 +5.7567382e-001 -8.8518009e-002 +4.5775089e-001 +4.3979135e-001 +1.8521493e-002 -1.1057488e-003 -1.0173314e-003 +6.2542985e-004 +2.3204485e-004 +2.8413886e-004 +4.4742203e-003 -1.0827676e+004 +5.1034436e+000 -5.3108563e+002 +1.9346531e-001 +0.0000000e+000 +0.0000000e+000 
+1.4839440e+003 +1.0379622e+002 +2.4919293e+000 +2.1121998e+000 +8.0100660e+000 +2.2915755e-001 +2.2292379e-001 +1.8409857e-001 +4.6465483e-002 +4.4844996e-002 +1.1504547e-001 -5.5612707e-001 +5.7567382e-001 -8.8518009e-002 +4.5775089e-001 +4.3979135e-001 +1.8521493e-002 -1.1057488e-003 -1.0173314e-003 +6.2542985e-004 +2.3204485e-004 +2.8413886e-004 +4.4742203e-003 -1.0880800e+004 +5.1043868e+000 -5.3108563e+002 +2.0574661e-001 +0.0000000e+000 +0.0000000e+000 
+1.4840380e+003 +1.0389626e+002 +2.4929006e+000 +2.1132452e+000 +8.0114355e+000 +2.6159650e-001 +2.5533289e-001 +1.8519014e-001 +4.6468262e-002 +4.4848807e-002 +1.1537919e-001 -5.5612707e-001 +5.7567382e-001 -8.8518009e-002 +4.5775089e-001 +4.3979135e-001 +1.8521493e-002 -1.1057488e-003 -1.0173314e-003 +6.2542985e-004 +2.3204485e-004 +2.8413886e-004 +4.4742203e-003 -1.0933892e+004 +5.1054077e+000 -5.3108563e+002 +2.1732125e-001 +0.0000000e+000 +0.0000000e+000 
+1.4841320e+003 +1.0399622e+002 +2.4942100e+000 +2.1146665e+000 +8.0128574e+000 +2.9312545e-001 +2.8668064e-001 +1.8627301e-001 +4.6471070e-002 +4.4852659e-002 +1.1571392e-001 -5.5612707e-001 +5.7567382e-001 -8.8518009e-002 +4.5775089e-001 +4.3979135e-001 +1.8521493e-002 -1.1057488e-003 -1.0173314e-003 +6.2542985e-004 +2.3204485e-004 +2.8413886e-004 +4.4742203e-003 -1.0987020e+004 +5.1065168e+000 -5.3108563e+002 +2.2832458e-001 +0.0000000e+000 +0.0000000e+000 
+1.4842410e+003 +1.0409626e+002 +2.4959531e+000 +2.1165705e+000 +8.0143299e+000 +3.2534733e-001 +3.1884632e-001 +1.8729424e-001 +4.6473913e-002 +4.4856541e-002 +1.1604939e-001 -5.5612707e-001 +5.7567382e-001 -8.8518009e-002 +4.5775089e-001 +4.3979135e-001 +1.8521493e-002 -1.1057488e-003 -1.0173314e-003 +6.2542985e-004 +2.3204485e-004 +2.8413886e-004 +4.4742203e-003 -1.1040144e+004 +5.1077228e+000 -5.3108563e+002 +2.3881993e-001 +0.0000000e+000 +0.0000000e+000 
+1.4843350e+003 +1.0419629e+002 +2.4982417e+000 +2.1190870e+000 +8.0158529e+000 +3.5770759e-001 +3.5114336e-001 +1.8839619e-001 +4.6476785e-002 +4.4860460e-002 +1.1638542e-001 -5.5612707e-001 +5.7567382e-001 -8.8518009e-002 +4.5775089e-001 +4.3979135e-001 +1.8521493e-002 -1.1057488e-003 -1.0173314e-003 +6.2542985e-004 +2.3204485e-004 +2.8413886e-004 +4.4742203e-003 -1.1093235e+004 +5.1090345e+000 -5.3108563e+002 +2.4886103e-001 +0.0000000e+000 +0.0000000e+000 
+1.4844440e+003 +1.0429626e+002 +2.4380324e+000 +2.0693429e+000 +7.8334298e+000 +9.5041640e-002 +1.0448279e-001 +1.5730600e-001 +1.8435208e-002 +1.2700815e-002 +1.1634357e-001 -4.5010975e-001 +3.1408194e-001 -9.5742851e-002 +1.8887852e-001 +1.3477074e-001 +1.3899351e-002 -1.0664735e-003 -9.6981990e-004 +8.6327922e-004 +2.2476875e-004 +2.7556816e-004 +4.4499962e-003 -1.1146431e+004 +4.9919081e+000 -5.3114691e+002 +1.2976108e-001 +0.0000000e+000 +0.0000000e+000 
+1.4845380e+003 +1.0439629e+002 +2.4375563e+000 +2.0664904e+000 +7.8342557e+000 +1.0079150e-001 +1.0922939e-001 +1.5834005e-001 +1.8067585e-002 +1.2494682e-002 +1.1664797e-001 -4.6259204e-001 +3.0637187e-001 -9.5870346e-002 +1.8543081e-001 +1.3292834e-001 +1.3894575e-002 -1.0661453e-003 -9.6816773e-004 +8.3897560e-004 +2.2476680e-004 +2.7552727e-004 +4.4494472e-003 -1.1199541e+004 +4.9924712e+000 -5.3113153e+002 +1.4063400e-001 +0.0000000e+000 +0.0000000e+000 
+1.4846480e+003 +1.0449626e+002 +2.4378963e+000 +2.0668499e+000 +7.8354897e+000 +1.0811356e-001 +1.1866073e-001 +1.5940322e-001 +1.8065663e-002 +1.2489543e-002 +1.1698458e-001 -4.6259204e-001 +3.0637187e-001 -9.5870346e-002 +1.8543081e-001 +1.3292834e-001 +1.3894576e-002 -1.0661453e-003 -9.6816773e-004 +8.3897560e-004 +2.2476680e-004 +2.7552727e-004 +4.4494472e-003 -1.1252670e+004 +4.9932714e+000 -5.3113153e+002 +1.5710112e-001 +0.0000000e+000 +0.0000000e+000 
+1.4847410e+003 +1.0459629e+002 +2.4382780e+000 +2.0672662e+000 +7.8367624e+000 +1.1549518e-001 +1.2824246e-001 +1.6047736e-001 +1.8063789e-002 +1.2484454e-002 +1.1732192e-001 -4.6259204e-001 +3.0637187e-001 -9.5870346e-002 +1.8543081e-001 +1.3292834e-001 +1.3894576e-002 -1.0661453e-003 -9.6816773e-004 +8.3897560e-004 +2.2476680e-004 +2.7552727e-004 +4.4494472e-003 -1.1305799e+004 +4.9941158e+000 -5.3113153e+002 +1.7199884e-001 +0.0000000e+000 +0.0000000e+000 
+1.4848350e+003 +1.0469632e+002 +2.4387109e+000 +2.0677555e+000 +7.8380742e+000 +1.2301775e-001 +1.3812380e-001 +1.6161375e-001 +1.8061960e-002 +1.2479416e-002 +1.1765979e-001 -4.6259204e-001 +3.0637187e-001 -9.5870346e-002 +1.8543081e-001 +1.3292834e-001 +1.3894577e-002 -1.0661453e-003 -9.6816773e-004 +8.3897560e-004 +2.2476680e-004 +2.7552727e-004 +4.4494472e-003 -1.1358895e+004 +4.9950137e+000 -5.3113153e+002 +1.8568917e-001 +0.0000000e+000 +0.0000000e+000 
+1.4849440e+003 +1.0479629e+002 +2.4392061e+000 +2.0683360e+000 +7.8394270e+000 +1.3063315e-001 +1.4801633e-001 +1.6275233e-001 +1.8060178e-002 +1.2474421e-002 +1.1799860e-001 -4.6259204e-001 +3.0637187e-001 -9.5870346e-002 +1.8543081e-001 +1.3292834e-001 +1.3894577e-002 -1.0661453e-003 -9.6816773e-004 +8.3897560e-004 +2.2476680e-004 +2.7552727e-004 +4.4494472e-003 -1.1412027e+004 +4.9959764e+000 -5.3113153e+002 +1.9845416e-001 +0.0000000e+000 +0.0000000e+000 
+1.4850380e+003 +1.0489632e+002 +2.4397738e+000 +2.0690269e+000 +7.8408198e+000 +1.3824545e-001 +1.5757574e-001 +1.6387270e-001 +1.8058438e-002 +1.2469478e-002 +1.1833789e-001 -4.6259204e-001 +3.0637187e-001 -9.5870346e-002 +1.8543081e-001 +1.3292834e-001 +1.3894578e-002 -1.0661453e-003 -9.6816773e-004 +8.3897560e-004 +2.2476680e-004 +2.7552727e-004 +4.4494472e-003 -1.1465123e+004 +4.9970121e+000 -5.3113153e+002 +2.1043031e-001 +0.0000000e+000 +0.0000000e+000 
+1.4851320e+003 +1.0499629e+002 +2.4404271e+000 +2.0698488e+000 +7.8422551e+000 +1.4626157e-001 +1.6772911e-001 +1.6494030e-001 +1.8056743e-002 +1.2464578e-002 +1.1867810e-001 -4.6259204e-001 +3.0637187e-001 -9.5870346e-002 +1.8543081e-001 +1.3292834e-001 +1.3894578e-002 -1.0661453e-003 -9.6816773e-004 +8.3897560e-004 +2.2476680e-004 +2.7552727e-004 +4.4494472e-003 -1.1518252e+004 +4.9981322e+000 -5.3113153e+002 +2.2177412e-001 +0.0000000e+000 +0.0000000e+000 
+1.4852410e+003 +1.0509632e+002 +2.4411793e+000 +2.0708251e+000 +7.8437328e+000 +1.5415642e-001 +1.7763034e-001 +1.6603288e-001 +1.8055094e-002 +1.2459723e-002 +1.1901902e-001 -4.6259204e-001 +3.0637187e-001 -9.5870346e-002 +1.8543081e-001 +1.3292834e-001 +1.3894578e-002 -1.0661453e-003 -9.6816773e-004 +8.3897560e-004 +2.2476680e-004 +2.7552727e-004 +4.4494472e-003 -1.1571385e+004 +4.9993458e+000 -5.3113153e+002 +2.3256686e-001 +0.0000000e+000 +0.0000000e+000 
+1.4853350e+003 +1.0519629e+002 +2.4420438e+000 +2.0719779e+000 +7.8452525e+000 +1.6211848e-001 +1.8782960e-001 +1.6713992e-001 +1.8053498e-002 +1.2454919e-002 +1.1936041e-001 -4.6259204e-001 +3.0637187e-001 -9.5870346e-002 +1.8543081e-001 +1.3292834e-001 +1.3894579e-002 -1.0661453e-003 -9.6816773e-004 +8.3897560e-004 +2.2476680e-004 +2.7552727e-004 +4.4494472e-003 -1.1624480e+004 +5.0006609e+000 -5.3113153e+002 +2.4286664e-001 +0.0000000e+000 +0.0000000e+000 
+1.4854450e+003 +1.0529632e+002 +2.3900032e+000 +2.0292432e+000 +7.6771402e+000 +8.3845787e-002 +9.3891300e-002 +1.5202324e-001 +1.1880861e-002 +7.3974850e-003 +1.1726193e-001 -2.8884292e-001 +8.7734759e-003 -1.0460331e-001 +1.2684222e-001 +8.7968685e-002 +1.2869871e-002 -1.0937726e-003 -9.5217419e-004 +9.3735720e-004 +2.2441053e-004 +2.7255024e-004 +4.4068950e-003 -1.1677718e+004 +4.8926134e+000 -5.3118707e+002 +1.2647472e-001 +0.0000000e+000 +0.0000000e+000 
+1.4855380e+003 +1.0539635e+002 +2.3896074e+000 +2.0266469e+000 +7.6780410e+000 +8.6751334e-002 +9.6326441e-002 +1.5304454e-001 +1.1674124e-002 +7.3318114e-003 +1.1733823e-001 -2.9889965e-001 +4.6142442e-003 -1.0460431e-001 +1.2501998e-001 +8.7521046e-002 +1.2944374e-002 -1.0933260e-003 -9.4779016e-004 +8.4451836e-004 +2.2440850e-004 +2.7239026e-004 +4.4024549e-003 -1.1730835e+004 +4.8932219e+000 -5.3116559e+002 +1.3711767e-001 +0.0000000e+000 +0.0000000e+000 
+1.4856480e+003 +1.0549632e+002 +2.3899767e+000 +2.0270391e+000 +7.6793208e+000 +9.0631023e-002 +1.0209318e-001 +1.5407158e-001 +1.1666709e-002 +7.3256800e-003 +1.1767612e-001 -2.9889965e-001 +4.6142442e-003 -1.0460431e-001 +1.2501998e-001 +8.7521046e-002 +1.3018551e-002 -1.0933260e-003 -9.4779016e-004 +8.4451836e-004 +2.2440850e-004 +2.7239026e-004 +4.4024549e-003 -1.1783967e+004 +4.8940516e+000 -5.3116559e+002 +1.5396135e-001 +0.0000000e+000 +0.0000000e+000 
+1.4857410e+003 +1.0559635e+002 +2.3903775e+000 +2.0274775e+000 +7.6806369e+000 +9.4476096e-002 +1.0790507e-001 +1.5508381e-001 +1.1659348e-002 +7.3196623e-003 +1.1801447e-001 -2.9889965e-001 +4.6142442e-003 -1.0460431e-001 +1.2501998e-001 +8.7521046e-002 +1.3092219e-002 -1.0933260e-003 -9.4779016e-004 +8.4451836e-004 +2.2440850e-004 +2.7239026e-004 +4.4024549e-003 -1.1837066e+004 +4.8949242e+000 -5.3116559e+002 +1.6911818e-001 +0.0000000e+000 +0.0000000e+000 
+1.4858350e+003 +1.0569632e+002 +2.3908153e+000 +2.0279715e+000 +7.6819921e+000 +9.8720744e-002 +1.1391728e-001 +1.5613990e-001 +1.1652037e-002 +7.3137525e-003 +1.1835372e-001 -2.9889965e-001 +4.6142442e-003 -1.0460431e-001 +1.2501998e-001 +8.7521046e-002 +1.3165575e-002 -1.0933260e-003 -9.4779016e-004 +8.4451836e-004 +2.2440850e-004 +2.7239026e-004 +4.4024549e-003 -1.1890202e+004 +4.8958507e+000 -5.3116559e+002 +1.8304247e-001 +0.0000000e+000 +0.0000000e+000 
+1.4859290e+003 +1.0579635e+002 +2.3912933e+000 +2.0285301e+000 +7.6833854e+000 +1.0302040e-001 +1.1988610e-001 +1.5717824e-001 +1.1644774e-002 +7.3079588e-003 +1.1869359e-001 -2.9889965e-001 +4.6142442e-003 -1.0460431e-001 +1.2501998e-001 +8.7521046e-002 +1.3238513e-002 -1.0933260e-003 -9.4779016e-004 +8.4451836e-004 +2.2440850e-004 +2.7239026e-004 +4.4024549e-003 -1.1943334e+004 +4.8968406e+000 -5.3116559e+002 +1.9597802e-001 +0.0000000e+000 +0.0000000e+000 
+1.4860380e+003 +1.0589638e+002 +2.3918171e+000 +2.0291624e+000 +7.6848168e+000 +1.0755536e-001 +1.2607160e-001 +1.5822688e-001 +1.1637571e-002 +7.3022866e-003 +1.1903391e-001 -2.9889965e-001 +4.6142442e-003 -1.0460431e-001 +1.2501998e-001 +8.7521046e-002 +1.3310964e-002 -1.0933260e-003 -9.4779016e-004 +8.4451836e-004 +2.2440850e-004 +2.7239026e-004 +4.4024549e-003 -1.1996434e+004 +4.8979025e+000 -5.3116559e+002 +2.0809673e-001 +0.0000000e+000 +0.0000000e+000 
+1.4861320e+003 +1.0599635e+002 +2.3923929e+000 +2.0298805e+000 +7.6862893e+000 +1.1204245e-001 +1.3219464e-001 +1.5927066e-001 +1.1630415e-002 +7.2967317e-003 +1.1937512e-001 -2.9889965e-001 +4.6142442e-003 -1.0460431e-001 +1.2501998e-001 +8.7521046e-002 +1.3383121e-002 -1.0933260e-003 -9.4779016e-004 +8.4451836e-004 +2.2440850e-004 +2.7239026e-004 +4.4024549e-003 -1.2049569e+004 +4.8990488e+000 -5.3116559e+002 +2.1956283e-001 +0.0000000e+000 +0.0000000e+000 
+1.4862410e+003 +1.0609638e+002 +2.3930261e+000 +2.0306947e+000 +7.6878014e+000 +1.1689525e-001 +1.3819754e-001 +1.6032389e-001 +1.1623320e-002 +7.2913067e-003 +1.1971672e-001 -2.9889965e-001 +4.6142442e-003 -1.0460431e-001 +1.2501998e-001 +8.7521046e-002 +1.3454793e-002 -1.0933260e-003 -9.4779016e-004 +8.4451836e-004 +2.2440850e-004 +2.7239026e-004 +4.4024549e-003 -1.2102669e+004 +4.9002872e+000 -5.3116559e+002 +2.3044457e-001 +0.0000000e+000 +0.0000000e+000 
+1.4863350e+003 +1.0619648e+002 +2.3937237e+000 +2.0316153e+000 +7.6893549e+000 +1.2147137e-001 +1.4423713e-001 +1.6136201e-001 +1.1616272e-002 +7.2860057e-003 +1.2005917e-001 -2.9889965e-001 +4.6142442e-003 -1.0460431e-001 +1.2501998e-001 +8.7521046e-002 +1.3526172e-002 -1.0933260e-003 -9.4779016e-004 +8.4451836e-004 +2.2440850e-004 +2.7239026e-004 +4.4024549e-003 -1.2155801e+004 +4.9016294e+000 -5.3116559e+002 +2.4084754e-001 +0.0000000e+000 +0.0000000e+000 
+1.4864440e+003 +1.0629638e+002 +2.3458781e+000 +1.9924542e+000 +7.5336070e+000 +7.6605871e-002 +8.6329259e-002 +1.4845268e-001 +8.3642500e-003 +5.5183861e-003 +1.0782138e-001 -2.2092296e-001 -1.2720968e-001 -1.0900798e-001 +9.6857786e-002 +7.3920347e-002 +1.2830236e-002 -1.1175881e-003 -9.4213808e-004 -1.0873773e-004 +2.2373916e-004 +2.6837745e-004 +4.1787405e-003 -1.2208984e+004 +4.8014231e+000 -5.3120911e+002 +1.2434040e-001 +0.0000000e+000 +0.0000000e+000 
+1.4865380e+003 +1.0639635e+002 +2.3455553e+000 +1.9900850e+000 +7.5345693e+000 +7.8460991e-002 +8.7530576e-002 +1.4941727e-001 +8.1881164e-003 +5.5011003e-003 +1.0725586e-001 -2.2569530e-001 -1.2803897e-001 -1.0895607e-001 +9.5536537e-002 +7.3868342e-002 +1.2903876e-002 -1.1164759e-003 -9.3883468e-004 -2.1468537e-004 +2.2370837e-004 +2.6815047e-004 +4.1637197e-003 -1.2262130e+004 +4.8020725e+000 -5.3119531e+002 +1.3503076e-001 +0.0000000e+000 +0.0000000e+000 
+1.4866480e+003 +1.0649638e+002 +2.3459461e+000 +1.9905033e+000 +7.5358915e+000 +8.1343040e-002 +9.1668509e-002 +1.5040131e-001 +8.1785517e-003 +5.4977164e-003 +1.0756946e-001 -2.2569530e-001 -1.2803897e-001 -1.0895607e-001 +9.5536537e-002 +7.3868342e-002 +1.2978297e-002 -1.1164759e-003 -9.3883468e-004 -2.1468537e-004 +2.2370837e-004 +2.6815047e-004 +4.1637197e-003 -1.2315269e+004 +4.8029294e+000 -5.3119531e+002 +1.5210816e-001 +0.0000000e+000 +0.0000000e+000 
+1.4867410e+003 +1.0659642e+002 +2.3463633e+000 +1.9909610e+000 +7.5372491e+000 +8.4614336e-002 +9.6418031e-002 +1.5139508e-001 +8.1690596e-003 +5.4946174e-003 +1.0788351e-001 -2.2569530e-001 -1.2803897e-001 -1.0895607e-001 +9.5536537e-002 +7.3868342e-002 +1.3052193e-002 -1.1164759e-003 -9.3883468e-004 -2.1468537e-004 +2.2370837e-004 +2.6815047e-004 +4.1637197e-003 -1.2368371e+004 +4.8038282e+000 -5.3119531e+002 +1.6743284e-001 +0.0000000e+000 +0.0000000e+000 
+1.4868350e+003 +1.0669638e+002 +2.3468101e+000 +1.9914646e+000 +7.5386443e+000 +8.7558158e-002 +1.0052329e-001 +1.5237986e-001 +8.1596263e-003 +5.4918099e-003 +1.0819843e-001 -2.2569530e-001 -1.2803897e-001 -1.0895607e-001 +9.5536537e-002 +7.3868342e-002 +1.3125762e-002 -1.1164759e-003 -9.3883468e-004 -2.1468537e-004 +2.2370837e-004 +2.6815047e-004 +4.1637197e-003 -1.2421506e+004 +4.8047810e+000 -5.3119531e+002 +1.8148442e-001 +0.0000000e+000 +0.0000000e+000 
+1.4869290e+003 +1.0679642e+002 +2.3472898e+000 +1.9920195e+000 +7.5400758e+000 +9.0839274e-002 +1.0487586e-001 +1.5337230e-001 +8.1502674e-003 +5.4892991e-003 +1.0851382e-001 -2.2569530e-001 -1.2803897e-001 -1.0895607e-001 +9.5536537e-002 +7.3868342e-002 +1.3198833e-002 -1.1164759e-003 -9.3883468e-004 -2.1468537e-004 +2.2370837e-004 +2.6815047e-004 +4.1637197e-003 -1.2474608e+004 +4.8057961e+000 -5.3119531e+002 +1.9450824e-001 +0.0000000e+000 +0.0000000e+000 
+1.4870380e+003 +1.0689638e+002 +2.3478065e+000 +1.9926331e+000 +7.5415463e+000 +9.3662389e-002 +1.0918237e-001 +1.5436159e-001 +8.1409672e-003 +5.4870942e-003 +1.0883009e-001 -2.2569530e-001 -1.2803897e-001 -1.0895607e-001 +9.5536537e-002 +7.3868342e-002 +1.3271601e-002 -1.1164759e-003 -9.3883468e-004 -2.1468537e-004 +2.2370837e-004 +2.6815047e-004 +4.1637197e-003 -1.2527747e+004 +4.8068852e+000 -5.3119531e+002 +2.0672940e-001 +0.0000000e+000 +0.0000000e+000 
+1.4871320e+003 +1.0699642e+002 +2.3483627e+000 +1.9933116e+000 +7.5430555e+000 +9.7589500e-002 +1.1374877e-001 +1.5537128e-001 +8.1317313e-003 +5.4852017e-003 +1.0914697e-001 -2.2569530e-001 -1.2803897e-001 -1.0895607e-001 +9.5536537e-002 +7.3868342e-002 +1.3343962e-002 -1.1164759e-003 -9.3883468e-004 -2.1468537e-004 +2.2370837e-004 +2.6815047e-004 +4.1637197e-003 -1.2580882e+004 +4.8080583e+000 -5.3119531e+002 +2.1826562e-001 +0.0000000e+000 +0.0000000e+000 
+1.4872410e+003 +1.0709645e+002 +2.3489633e+000 +1.9940619e+000 +7.5446029e+000 +1.0143629e-001 +1.1868118e-001 +1.5638147e-001 +8.1225671e-003 +5.4836250e-003 +1.0946430e-001 -2.2569530e-001 -1.2803897e-001 -1.0895607e-001 +9.5536537e-002 +7.3868342e-002 +1.3415844e-002 -1.1164759e-003 -9.3883468e-004 -2.1468537e-004 +2.2370837e-004 +2.6815047e-004 +4.1637197e-003 -1.2633984e+004 +4.8093238e+000 -5.3119531e+002 +2.2920896e-001 +0.0000000e+000 +0.0000000e+000 
+1.4873350e+003 +1.0719642e+002 +2.3496132e+000 +1.9948925e+000 +7.5461912e+000 +1.0533015e-001 +1.2359183e-001 +1.5739529e-001 +8.1134606e-003 +5.4823686e-003 +1.0978247e-001 -2.2569530e-001 -1.2803897e-001 -1.0895607e-001 +9.5536537e-002 +7.3868342e-002 +1.3487430e-002 -1.1164759e-003 -9.3883468e-004 -2.1468537e-004 +2.2370837e-004 +2.6815047e-004 +4.1637197e-003 -1.2687119e+004 +4.8106937e+000 -5.3119531e+002 +2.3966558e-001 +0.0000000e+000 +0.0000000e+000 
+1.4874450e+003 +1.0729645e+002 +2.3051906e+000 +1.9585890e+000 +7.4012890e+000 +7.2515517e-002 +8.0780886e-002 +1.4551376e-001 +6.1959215e-003 +4.8379302e-003 +9.3143873e-002 -1.8040606e-001 -1.8136379e-001 -1.0956205e-001 +8.1636377e-002 +6.9185175e-002 +1.2919253e-002 -1.1275117e-003 -9.4072951e-004 -5.9411826e-004 +2.2263735e-004 +2.6549265e-004 +3.8863951e-003 -1.2740377e+004 +4.7173600e+000 -5.3123840e+002 +1.2275626e-001 +0.0000000e+000 +0.0000000e+000 
+1.4875380e+003 +1.0739642e+002 +2.3049307e+000 +1.9564204e+000 +7.4023042e+000 +7.4318916e-002 +8.1526533e-002 +1.4644845e-001 +6.0666515e-003 +4.8390799e-003 +9.2120759e-002 -1.8130866e-001 -1.8124932e-001 -1.0953820e-001 +8.0869272e-002 +6.9170669e-002 +1.2990247e-002 -1.1270058e-003 -9.3996158e-004 -6.2625937e-004 +2.2254929e-004 +2.6532265e-004 +3.8660078e-003 -1.2793522e+004 +4.7180452e+000 -5.3123468e+002 +1.3365652e-001 +0.0000000e+000 +0.0000000e+000 
+1.4876480e+003 +1.0749645e+002 +2.3053370e+000 +1.9568571e+000 +7.4036660e+000 +7.7237979e-002 +8.4734194e-002 +1.4740224e-001 +6.0570054e-003 +4.8406585e-003 +9.2402205e-002 -1.8130866e-001 -1.8124932e-001 -1.0953820e-001 +8.0869272e-002 +6.9170669e-002 +1.3064166e-002 -1.1270058e-003 -9.3996158e-004 -6.2625937e-004 +2.2254929e-004 +2.6532265e-004 +3.8660078e-003 -1.2846661e+004 +4.7189264e+000 -5.3123468e+002 +1.5088706e-001 +0.0000000e+000 +0.0000000e+000 
+1.4877410e+003 +1.0759648e+002 +2.3057671e+000 +1.9573287e+000 +7.4050622e+000 +7.9931788e-002 +8.7323464e-002 +1.4835522e-001 +6.0474630e-003 +4.8426697e-003 +9.2684202e-002 -1.8130866e-001 -1.8124932e-001 -1.0953820e-001 +8.0869272e-002 +6.9170669e-002 +1.3137580e-002 -1.1270058e-003 -9.3996158e-004 -6.2625937e-004 +2.2254929e-004 +2.6532265e-004 +3.8660078e-003 -1.2899768e+004 +4.7198505e+000 -5.3123468e+002 +1.6632427e-001 +0.0000000e+000 +0.0000000e+000 
+1.4878350e+003 +1.0769645e+002 +2.3062248e+000 +1.9578397e+000 +7.4064960e+000 +8.3227627e-002 +9.0555854e-002 +1.4931947e-001 +6.0380120e-003 +4.8451275e-003 +9.2967123e-002 -1.8130866e-001 -1.8124932e-001 -1.0953820e-001 +8.0869272e-002 +6.9170669e-002 +1.3210687e-002 -1.1270058e-003 -9.3996158e-004 -6.2625937e-004 +2.2254929e-004 +2.6532265e-004 +3.8660078e-003 -1.2952910e+004 +4.7208281e+000 -5.3123468e+002 +1.8046428e-001 +0.0000000e+000 +0.0000000e+000 
+1.4879450e+003 +1.0779648e+002 +2.3067126e+000 +1.9583932e+000 +7.4079652e+000 +8.6438760e-002 +9.3870312e-002 +1.5028679e-001 +6.0286634e-003 +4.8480327e-003 +9.3250565e-002 -1.8130866e-001 -1.8124932e-001 -1.0953820e-001 +8.0869272e-002 +6.9170669e-002 +1.3283292e-002 -1.1270058e-003 -9.3996158e-004 -6.2625937e-004 +2.2254929e-004 +2.6532265e-004 +3.8660078e-003 -1.3006017e+004 +4.7218690e+000 -5.3123468e+002 +1.9355676e-001 +0.0000000e+000 +0.0000000e+000 
+1.4880380e+003 +1.0789645e+002 +2.3072343e+000 +1.9589945e+000 +7.4094720e+000 +8.9247830e-002 +9.7095720e-002 +1.5125696e-001 +6.0194060e-003 +4.8513911e-003 +9.3534887e-002 -1.8130866e-001 -1.8124932e-001 -1.0953820e-001 +8.0869272e-002 +6.9170669e-002 +1.3355590e-002 -1.1270058e-003 -9.3996158e-004 -6.2625937e-004 +2.2254929e-004 +2.6532265e-004 +3.8660078e-003 -1.3059155e+004 +4.7229838e+000 -5.3123468e+002 +2.0583259e-001 +0.0000000e+000 +0.0000000e+000 
+1.4881320e+003 +1.0799648e+002 +2.3077929e+000 +1.9596475e+000 +7.4110165e+000 +9.3042649e-002 +1.0057190e-001 +1.5223718e-001 +6.0102469e-003 +4.8552165e-003 +9.3819909e-002 -1.8130866e-001 -1.8124932e-001 -1.0953820e-001 +8.0869272e-002 +6.9170669e-002 +1.3427500e-002 -1.1270058e-003 -9.3996158e-004 -6.2625937e-004 +2.2254929e-004 +2.6532265e-004 +3.8660078e-003 -1.3112294e+004 +4.7241836e+000 -5.3123468e+002 +2.1741641e-001 +0.0000000e+000 +0.0000000e+000 
+1.4882420e+003 +1.0809645e+002 +2.3083923e+000 +1.9603574e+000 +7.4125986e+000 +9.6550785e-002 +1.0407825e-001 +1.5322024e-001 +6.0011954e-003 +4.8595094e-003 +9.4105437e-002 -1.8130866e-001 -1.8124932e-001 -1.0953820e-001 +8.0869272e-002 +6.9170669e-002 +1.3498939e-002 -1.1270058e-003 -9.3996158e-004 -6.2625937e-004 +2.2254929e-004 +2.6532265e-004 +3.8660078e-003 -1.3165400e+004 +4.7254767e+000 -5.3123468e+002 +2.2840042e-001 +0.0000000e+000 +0.0000000e+000 
