  PC Time         Time Validity   Lat Unc         Lon Unc         Hgt Unc         N Vel Unc       E Vel Unc       D Vel Unc       N Tilt Unc      E Tilt Unc      D Tilt Unc      Acc X Bias Corr Acc Y Bias Corr Acc Z Bias Corr Acc X Unc       Acc Y Unc       Acc Z Unc       Gy X Drift Corr Gy Y Drift Corr Gy Z Drift Corr Gyro X Bias     Gyro Y Bias     Gyro Z Bias     Rx Clk Err      Clk Err Unc     Rx Clk Rate Err Clk Rate Unc    Processor Temp  PCB Temp     
   6.748704e+01    6.748704e+01    1.500000e+02    1.500000e+02    1.500000e+02    3.000000e-01    3.000000e-01    3.000000e-01    8.726646e-02    8.726646e-02    8.726646e-02    0.000000e+00    0.000000e+00    0.000000e+00    9.830608e-01    9.830608e-01    9.830608e-01    0.000000e+00    0.000000e+00    0.000000e+00    4.848137e-03    4.848137e-03    4.848137e-03    0.000000e+00    1.000000e+05    0.000000e+00    1.000000e+03    0.000000e+00   -9.255959e+61
   6.758701e+01    6.758701e+01    1.500000e+02    1.500000e+02    1.500000e+02    3.273463e-01    3.273509e-01    3.157267e-01    8.726800e-02    8.726800e-02    8.726800e-02    0.000000e+00    0.000000e+00    0.000000e+00    9.830608e-01    9.830608e-01    9.830608e-01    0.000000e+00    0.000000e+00    0.000000e+00    4.848137e-03    4.848137e-03    4.848137e-03    0.000000e+00    1.000001e+05    0.000000e+00    1.000000e+03    0.000000e+00   -9.255959e+61
   6.768698e+01    6.768698e+01    1.500000e+02    1.500000e+02    1.500000e+02    3.973187e-01    3.973233e-01    3.587187e-01    8.727224e-02    8.727224e-02    8.727223e-02    0.000000e+00    0.000000e+00    0.000000e+00    9.830608e-01    9.830608e-01    9.830608e-01    0.000000e+00    0.000000e+00    0.000000e+00    4.848137e-03    4.848137e-03    4.848137e-03    0.000000e+00    1.000002e+05    0.000000e+00    1.000000e+03    0.000000e+00   -9.255959e+61
   6.778701e+01    6.778701e+01    1.500000e+02    1.500000e+02    1.500000e+02    4.921466e-01    4.921510e-01    4.207495e-01    8.727916e-02    8.727916e-02    8.727916e-02    0.000000e+00    0.000000e+00    0.000000e+00    9.830608e-01    9.830608e-01    9.830608e-01    0.000000e+00    0.000000e+00    0.000000e+00    4.848137e-03    4.848137e-03    4.848137e-03    0.000000e+00    1.000005e+05    0.000000e+00    1.000000e+03    0.000000e+00   -9.255959e+61
   6.788698e+01    6.788698e+01    1.500001e+02    1.500001e+02    1.500001e+02    6.001521e-01    6.001560e-01    4.946416e-01    8.728877e-02    8.728878e-02    8.728878e-02    0.000000e+00    0.000000e+00    0.000000e+00    9.830608e-01    9.830608e-01    9.830608e-01    0.000000e+00    0.000000e+00    0.000000e+00    4.848137e-03    4.848137e-03    4.848137e-03    0.000000e+00    1.000008e+05    0.000000e+00    1.000000e+03    0.000000e+00   -9.255959e+61
   6.798701e+01    6.798701e+01    1.500001e+02    1.500001e+02    1.500001e+02    7.154607e-01    7.154646e-01    5.759219e-01    8.730109e-02    8.730109e-02    8.730109e-02    0.000000e+00    0.000000e+00    0.000000e+00    9.830608e-01    9.830608e-01    9.830608e-01    0.000000e+00    0.000000e+00    0.000000e+00    4.848137e-03    4.848137e-03    4.848137e-03    0.000000e+00    1.000013e+05    0.000000e+00    1.000000e+03    0.000000e+00   -9.255959e+61
   6.808698e+01    6.808698e+01    1.500002e+02    1.500002e+02    1.500002e+02    8.349017e-01    8.349050e-01    6.617926e-01    8.731608e-02    8.731608e-02    8.731609e-02    0.000000e+00    0.000000e+00    0.000000e+00    9.830608e-01    9.830608e-01    9.830608e-01    0.000000e+00    0.000000e+00    0.000000e+00    4.848137e-03    4.848137e-03    4.848137e-03    0.000000e+00    1.000018e+05    0.000000e+00    1.000000e+03    0.000000e+00   -9.255959e+61
   6.818701e+01    6.818701e+01    1.500004e+02    1.500004e+02    1.500003e+02    9.571769e-01    9.571802e-01    7.507749e-01    8.733377e-02    8.733377e-02    8.733379e-02    0.000000e+00    0.000000e+00    0.000000e+00    9.830608e-01    9.830608e-01    9.830608e-01    0.000000e+00    0.000000e+00    0.000000e+00    4.848137e-03    4.848137e-03    4.848137e-03    0.000000e+00    1.000025e+05    0.000000e+00    1.000000e+03    0.000000e+00   -9.255959e+61
   6.828698e+01    6.828698e+01    1.500006e+02    1.500006e+02    1.500004e+02    1.080916e+00    1.080919e+00    8.417791e-01    8.735413e-02    8.735413e-02    8.735416e-02    0.000000e+00    0.000000e+00    0.000000e+00    9.830608e-01    9.830608e-01    9.830608e-01    0.000000e+00    0.000000e+00    0.000000e+00    4.848137e-03    4.848137e-03    4.848137e-03    0.000000e+00    1.000032e+05    0.000000e+00    1.000000e+03    0.000000e+00   -9.255959e+61
   6.838701e+01    6.838701e+01    1.500010e+02    1.500010e+02    1.500006e+02    1.206116e+00    1.206118e+00    9.343142e-01    8.737719e-02    8.737719e-02    8.737723e-02    0.000000e+00    0.000000e+00    0.000000e+00    9.830608e-01    9.830608e-01    9.830608e-01    0.000000e+00    0.000000e+00    0.000000e+00    4.848137e-03    4.848137e-03    4.848137e-03    0.000000e+00    1.000041e+05    0.000000e+00    1.000000e+03    0.000000e+00   -9.255959e+61
   6.848698e+01    6.848698e+01    1.500014e+02    1.500014e+02    1.500009e+02    1.331959e+00    1.331961e+00    1.027870e+00    8.740291e-02    8.740292e-02    8.740297e-02    0.000000e+00    0.000000e+00    0.000000e+00    9.830608e-01    9.830608e-01    9.830608e-01    0.000000e+00    0.000000e+00    0.000000e+00    4.848137e-03    4.848137e-03    4.848137e-03    0.000000e+00    1.000050e+05    0.000000e+00    1.000000e+03    0.000000e+00   -9.255959e+61
   6.858701e+01    6.858701e+01    1.500021e+02    1.500021e+02    1.500013e+02    1.458689e+00    1.458692e+00    1.122290e+00    8.743134e-02    8.743135e-02    8.743141e-02    0.000000e+00    0.000000e+00    0.000000e+00    9.830608e-01    9.830608e-01    9.830608e-01    0.000000e+00    0.000000e+00    0.000000e+00    4.848137e-03    4.848137e-03    4.848137e-03    0.000000e+00    1.000061e+05    0.000000e+00    1.000000e+03    0.000000e+00   -9.255959e+61
   6.868698e+01    6.868698e+01    1.500029e+02    1.500030e+02    1.500018e+02    1.585865e+00    1.585867e+00    1.217272e+00    8.746242e-02    8.746243e-02    8.746250e-02    0.000000e+00    0.000000e+00    0.000000e+00    9.830608e-01    9.830608e-01    9.830608e-01    0.000000e+00    0.000000e+00    0.000000e+00    4.848137e-03    4.848137e-03    4.848137e-03    0.000000e+00    1.000072e+05    0.000000e+00    1.000000e+03    0.000000e+00   -9.255959e+61
   6.878701e+01    6.878701e+01    1.500039e+02    1.500040e+02    1.500024e+02    1.713495e+00    1.713498e+00    1.312805e+00    8.749619e-02    8.749620e-02    8.749629e-02    0.000000e+00    0.000000e+00    0.000000e+00    9.830608e-01    9.830608e-01    9.830608e-01    0.000000e+00    0.000000e+00    0.000000e+00    4.848137e-03    4.848137e-03    4.848137e-03    0.000000e+00    1.000085e+05    0.000000e+00    1.000000e+03    0.000000e+00   -9.255959e+61
   6.888698e+01    6.888698e+01    1.500052e+02    1.500054e+02    1.500032e+02    1.841358e+00    1.841361e+00    1.408658e+00    8.753262e-02    8.753263e-02    8.753274e-02    0.000000e+00    0.000000e+00    0.000000e+00    9.830608e-01    9.830608e-01    9.830608e-01    0.000000e+00    0.000000e+00    0.000000e+00    4.848137e-03    4.848137e-03    4.848137e-03    0.000000e+00    1.000098e+05    0.000000e+00    1.000000e+03    0.000000e+00   -9.255959e+61
   6.898701e+01    6.898701e+01    1.500068e+02    1.500070e+02    1.500042e+02    1.969505e+00    1.969508e+00    1.504883e+00    8.757173e-02    8.757174e-02    8.757187e-02    0.000000e+00    0.000000e+00    0.000000e+00    9.830608e-01    9.830608e-01    9.830608e-01    0.000000e+00    0.000000e+00    0.000000e+00    4.848137e-03    4.848137e-03    4.848137e-03    0.000000e+00    1.000113e+05    0.000000e+00    1.000000e+03    0.000000e+00   -9.255959e+61
   6.908698e+01    6.908698e+01    1.500088e+02    1.500090e+02    1.500054e+02    2.097843e+00    2.097845e+00    1.601305e+00    8.761348e-02    8.761350e-02    8.761364e-02    0.000000e+00    0.000000e+00    0.000000e+00    9.830608e-01    9.830608e-01    9.830608e-01    0.000000e+00    0.000000e+00    0.000000e+00    4.848137e-03    4.848137e-03    4.848137e-03    0.000000e+00    1.000128e+05    0.000000e+00    1.000000e+03    0.000000e+00   -9.255959e+61
   6.918701e+01    6.918701e+01    1.500112e+02    1.500114e+02    1.500068e+02    2.226456e+00    2.226458e+00    1.698006e+00    8.765793e-02    8.765794e-02    8.765811e-02    0.000000e+00    0.000000e+00    0.000000e+00    9.830608e-01    9.830608e-01    9.830608e-01    0.000000e+00    0.000000e+00    0.000000e+00    4.848137e-03    4.848137e-03    4.848137e-03    0.000000e+00    1.000145e+05    0.000000e+00    1.000000e+03    0.000000e+00   -9.255959e+61
   6.928698e+01    6.928698e+01    1.500141e+02    1.500142e+02    1.500085e+02    2.355028e+00    2.355030e+00    1.794819e+00    8.770500e-02    8.770501e-02    8.770520e-02    0.000000e+00    0.000000e+00    0.000000e+00    9.830608e-01    9.830608e-01    9.830608e-01    0.000000e+00    0.000000e+00    0.000000e+00    4.848137e-03    4.848137e-03    4.848137e-03    0.000000e+00    1.000162e+05    0.000000e+00    1.000000e+03    0.000000e+00   -9.255959e+61
   6.938701e+01    6.938701e+01    1.500174e+02    1.500176e+02    1.500105e+02    2.483900e+00    2.483902e+00    1.891842e+00    8.775475e-02    8.775476e-02    8.775497e-02    0.000000e+00    0.000000e+00    0.000000e+00    9.830608e-01    9.830608e-01    9.830608e-01    0.000000e+00    0.000000e+00    0.000000e+00    4.848137e-03    4.848137e-03    4.848137e-03    0.000000e+00    1.000181e+05    0.000000e+00    1.000000e+03    0.000000e+00   -9.255959e+61
   6.948698e+01    6.948698e+01    1.500214e+02    1.500216e+02    1.500128e+02    2.612883e+00    2.612884e+00    1.988935e+00    8.780712e-02    8.780713e-02    8.780737e-02    0.000000e+00    0.000000e+00    0.000000e+00    9.830608e-01    9.830608e-01    9.830608e-01    0.000000e+00    0.000000e+00    0.000000e+00    4.848137e-03    4.848137e-03    4.848137e-03    0.000000e+00    1.000200e+05    0.000000e+00    1.000000e+03    0.000000e+00   -9.255959e+61
   6.958701e+01    6.958701e+01    1.500260e+02    1.500262e+02    1.500155e+02    2.742002e+00    2.742003e+00    2.086198e+00    8.786216e-02    8.786217e-02    8.786243e-02    0.000000e+00    0.000000e+00    0.000000e+00    9.830608e-01    9.830608e-01    9.830608e-01    0.000000e+00    0.000000e+00    0.000000e+00    4.848137e-03    4.848137e-03    4.848137e-03    0.000000e+00    1.000220e+05    0.000000e+00    1.000000e+03    0.000000e+00   -9.255959e+61
   6.968698e+01    6.968698e+01    1.500313e+02    1.500315e+02    1.500186e+02    2.871164e+00    2.871165e+00    2.183497e+00    8.791980e-02    8.791981e-02    8.792010e-02    0.000000e+00    0.000000e+00    0.000000e+00    9.830608e-01    9.830608e-01    9.830608e-01    0.000000e+00    0.000000e+00    0.000000e+00    4.848137e-03    4.848137e-03    4.848137e-03    0.000000e+00    1.000242e+05    0.000000e+00    1.000000e+03    0.000000e+00   -9.255959e+61
   6.978701e+01    6.978701e+01    1.500374e+02    1.500377e+02    1.500222e+02    3.000507e+00    3.000508e+00    2.280947e+00    8.798012e-02    8.798013e-02    8.798045e-02    0.000000e+00    0.000000e+00    0.000000e+00    9.830608e-01    9.830608e-01    9.830608e-01    0.000000e+00    0.000000e+00    0.000000e+00    4.848137e-03    4.848137e-03    4.848137e-03    0.000000e+00    1.000265e+05    0.000000e+00    1.000000e+03    0.000000e+00   -9.255959e+61
   6.988698e+01    6.988698e+01    1.500444e+02    1.500447e+02    1.500262e+02    3.129892e+00    3.129893e+00    2.378404e+00    8.804302e-02    8.804303e-02    8.804338e-02    0.000000e+00    0.000000e+00    0.000000e+00    9.830608e-01    9.830608e-01    9.830608e-01    0.000000e+00    0.000000e+00    0.000000e+00    4.848137e-03    4.848137e-03    4.848137e-03    0.000000e+00    1.000288e+05    0.000000e+00    1.000000e+03    0.000000e+00   -9.255959e+61
   6.998701e+01    6.998701e+01    1.500523e+02    1.500526e+02    1.500308e+02    3.259399e+00    3.259399e+00    2.475985e+00    8.810858e-02    8.810860e-02    8.810898e-02    0.000000e+00    0.000000e+00    0.000000e+00    9.830608e-01    9.830608e-01    9.830608e-01    0.000000e+00    0.000000e+00    0.000000e+00    4.848137e-03    4.848137e-03    4.848137e-03    0.000000e+00    1.000312e+05    0.000000e+00    1.000000e+03    0.000000e+00   -9.255959e+61
   7.008698e+01    7.008698e+01    1.500612e+02    1.500616e+02    1.500360e+02    3.388858e+00    3.388858e+00    2.573564e+00    8.817672e-02    8.817673e-02    8.817715e-02    0.000000e+00    0.000000e+00    0.000000e+00    9.830608e-01    9.830608e-01    9.830608e-01    0.000000e+00    0.000000e+00    0.000000e+00    4.848137e-03    4.848137e-03    4.848137e-03    0.000000e+00    1.000338e+05    0.000000e+00    1.000000e+03    0.000000e+00   -9.255959e+61
   7.018701e+01    7.018701e+01    1.500712e+02    1.500716e+02    1.500419e+02    3.518582e+00    3.518581e+00    2.671261e+00    8.824751e-02    8.824753e-02    8.824798e-02    0.000000e+00    0.000000e+00    0.000000e+00    9.830608e-01    9.830608e-01    9.830608e-01    0.000000e+00    0.000000e+00    0.000000e+00    4.848137e-03    4.848137e-03    4.848137e-03    0.000000e+00    1.000364e+05    0.000000e+00    1.000000e+03    0.000000e+00   -9.255959e+61
   7.028698e+01    7.028698e+01    1.500824e+02    1.500828e+02    1.500484e+02    3.648146e+00    3.648145e+00    2.768937e+00    8.832086e-02    8.832087e-02    8.832136e-02    0.000000e+00    0.000000e+00    0.000000e+00    9.830608e-01    9.830608e-01    9.830608e-01    0.000000e+00    0.000000e+00    0.000000e+00    4.848137e-03    4.848137e-03    4.848137e-03    0.000000e+00    1.000392e+05    0.000000e+00    1.000000e+03    0.000000e+00   -9.255959e+61
   7.038701e+01    7.038701e+01    1.500949e+02    1.500953e+02    1.500556e+02    3.777887e+00    3.777885e+00    2.866713e+00    8.839685e-02    8.839686e-02    8.839739e-02    0.000000e+00    0.000000e+00    0.000000e+00    9.830608e-01    9.830608e-01    9.830608e-01    0.000000e+00    0.000000e+00    0.000000e+00    4.848137e-03    4.848137e-03    4.848137e-03    0.000000e+00    1.000420e+05    0.000000e+00    1.000000e+03    0.000000e+00   -9.255959e+61
   7.048698e+01    7.048698e+01    1.501088e+02    1.501092e+02    1.500636e+02    3.907703e+00    3.907700e+00    2.964467e+00    8.847537e-02    8.847539e-02    8.847595e-02    0.000000e+00    0.000000e+00    0.000000e+00    9.830608e-01    9.830608e-01    9.830608e-01    0.000000e+00    0.000000e+00    0.000000e+00    4.848137e-03    4.848137e-03    4.848137e-03    0.000000e+00    1.000450e+05    0.000000e+00    1.000000e+03    0.000000e+00   -9.255959e+61
   7.058701e+01    7.058701e+01    1.501241e+02    1.501247e+02    1.500725e+02    4.037593e+00    4.037590e+00    3.062314e+00    8.855653e-02    8.855655e-02    8.855716e-02    0.000000e+00    0.000000e+00    0.000000e+00    9.830608e-01    9.830608e-01    9.830608e-01    0.000000e+00    0.000000e+00    0.000000e+00    4.848137e-03    4.848137e-03    4.848137e-03    0.000000e+00    1.000480e+05    0.000000e+00    1.000000e+03    0.000000e+00   -9.255959e+61
   7.068698e+01    7.068698e+01    1.501410e+02    1.501416e+02    1.500823e+02    4.167391e+00    4.167387e+00    3.160131e+00    8.864023e-02    8.864023e-02    8.864088e-02    0.000000e+00    0.000000e+00    0.000000e+00    9.830608e-01    9.830608e-01    9.830608e-01    0.000000e+00    0.000000e+00    0.000000e+00    4.848137e-03    4.848137e-03    4.848137e-03    0.000000e+00    1.000512e+05    0.000000e+00    1.000000e+03    0.000000e+00   -9.255959e+61
   7.078701e+01    7.078701e+01    1.501596e+02    1.501602e+02    1.500930e+02    4.297362e+00    4.297358e+00    3.258043e+00    8.872655e-02    8.872655e-02    8.872724e-02    0.000000e+00    0.000000e+00    0.000000e+00    9.830608e-01    9.830608e-01    9.830608e-01    0.000000e+00    0.000000e+00    0.000000e+00    4.848137e-03    4.848137e-03    4.848137e-03    0.000000e+00    1.000544e+05    0.000000e+00    1.000000e+03    0.000000e+00   -9.255959e+61
   7.088698e+01    7.088698e+01    1.501800e+02    1.501806e+02    1.501048e+02    4.427477e+00    4.427472e+00    3.355913e+00    8.881536e-02    8.881536e-02    8.881610e-02    0.000000e+00    0.000000e+00    0.000000e+00    9.830608e-01    9.830608e-01    9.830608e-01    0.000000e+00    0.000000e+00    0.000000e+00    4.848137e-03    4.848137e-03    4.848137e-03    0.000000e+00    1.000578e+05    0.000000e+00    1.000000e+03    0.000000e+00   -9.255959e+61
   7.098701e+01    7.098701e+01    1.502022e+02    1.502029e+02    1.501177e+02    4.557657e+00    4.557650e+00    3.453867e+00    8.890679e-02    8.890679e-02    8.890757e-02    0.000000e+00    0.000000e+00    0.000000e+00    9.830608e-01    9.830608e-01    9.830608e-01    0.000000e+00    0.000000e+00    0.000000e+00    4.848137e-03    4.848137e-03    4.848137e-03    0.000000e+00    1.000612e+05    0.000000e+00    1.000000e+03    0.000000e+00   -9.255959e+61
   7.108698e+01    7.108698e+01    1.502265e+02    1.502272e+02    1.501317e+02    4.687748e+00    4.687741e+00    3.551782e+00    8.900071e-02    8.900072e-02    8.900154e-02    0.000000e+00    0.000000e+00    0.000000e+00    9.830608e-01    9.830608e-01    9.830608e-01    0.000000e+00    0.000000e+00    0.000000e+00    4.848137e-03    4.848137e-03    4.848137e-03    0.000000e+00    1.000648e+05    0.000000e+00    1.000000e+03    0.000000e+00   -9.255959e+61
   7.118701e+01    7.118701e+01    1.502529e+02    1.502537e+02    1.501469e+02    4.818009e+00    4.818000e+00    3.649783e+00    8.909722e-02    8.909723e-02    8.909810e-02    0.000000e+00    0.000000e+00    0.000000e+00    9.830608e-01    9.830608e-01    9.830608e-01    0.000000e+00    0.000000e+00    0.000000e+00    4.848137e-03    4.848137e-03    4.848137e-03    0.000000e+00    1.000684e+05    0.000000e+00    1.000000e+03    0.000000e+00   -9.255959e+61
   7.128698e+01    7.128698e+01    1.502815e+02    1.502824e+02    1.501634e+02    4.948228e+00    4.948219e+00    3.747736e+00    8.919619e-02    8.919620e-02    8.919713e-02    0.000000e+00    0.000000e+00    0.000000e+00    9.830608e-01    9.830608e-01    9.830608e-01    0.000000e+00    0.000000e+00    0.000000e+00    4.848137e-03    4.848137e-03    4.848137e-03    0.000000e+00    1.000722e+05    0.000000e+00    1.000000e+03    0.000000e+00   -9.255959e+61
   7.138701e+01    7.138701e+01    1.503126e+02    1.503134e+02    1.501813e+02    5.078510e+00    5.078500e+00    3.845764e+00    8.929776e-02    8.929776e-02    8.929874e-02    0.000000e+00    0.000000e+00    0.000000e+00    9.830608e-01    9.830608e-01    9.830608e-01    0.000000e+00    0.000000e+00    0.000000e+00    4.848137e-03    4.848137e-03    4.848137e-03    0.000000e+00    1.000760e+05    0.000000e+00    1.000000e+03    0.000000e+00   -9.255959e+61
   7.148698e+01    7.148698e+01    1.503461e+02    1.503470e+02    1.502006e+02    5.208775e+00    5.208763e+00    3.943748e+00    8.940177e-02    8.940176e-02    8.940281e-02    0.000000e+00    0.000000e+00    0.000000e+00    9.830608e-01    9.830608e-01    9.830608e-01    0.000000e+00    0.000000e+00    0.000000e+00    4.848137e-03    4.848137e-03    4.848137e-03    0.000000e+00    1.000800e+05    0.000000e+00    1.000000e+03    0.000000e+00   -9.255959e+61
   7.158701e+01    7.158701e+01    1.503822e+02    1.503831e+02    1.502215e+02    5.339302e+00    5.339289e+00    4.041806e+00    8.950835e-02    8.950834e-02    8.950944e-02    0.000000e+00    0.000000e+00    0.000000e+00    9.830608e-01    9.830608e-01    9.830608e-01    0.000000e+00    0.000000e+00    0.000000e+00    4.848137e-03    4.848137e-03    4.848137e-03    0.000000e+00    1.000840e+05    0.000000e+00    1.000000e+03    0.000000e+00   -9.255959e+61
   7.168698e+01    7.168698e+01    1.504211e+02    1.504222e+02    1.502439e+02    5.469745e+00    5.469731e+00    4.139816e+00    8.961736e-02    8.961736e-02    8.961851e-02    0.000000e+00    0.000000e+00    0.000000e+00    9.830608e-01    9.830608e-01    9.830608e-01    0.000000e+00    0.000000e+00    0.000000e+00    4.848137e-03    4.848137e-03    4.848137e-03    0.000000e+00    1.000882e+05    0.000000e+00    1.000000e+03    0.000000e+00   -9.255959e+61
   7.178701e+01    7.178701e+01    1.504629e+02    1.504640e+02    1.502680e+02    5.600338e+00    5.600323e+00    4.237907e+00    8.972894e-02    8.972893e-02    8.973013e-02    0.000000e+00    0.000000e+00    0.000000e+00    9.830608e-01    9.830608e-01    9.830608e-01    0.000000e+00    0.000000e+00    0.000000e+00    4.848137e-03    4.848137e-03    4.848137e-03    0.000000e+00    1.000924e+05    0.000000e+00    1.000000e+03    0.000000e+00   -9.255959e+61
   7.188698e+01    7.188698e+01    1.505078e+02    1.505089e+02    1.502938e+02    5.730918e+00    5.730901e+00    4.335943e+00    8.984291e-02    8.984291e-02    8.984416e-02    0.000000e+00    0.000000e+00    0.000000e+00    9.830608e-01    9.830608e-01    9.830608e-01    0.000000e+00    0.000000e+00    0.000000e+00    4.848137e-03    4.848137e-03    4.848137e-03    0.000000e+00    1.000968e+05    0.000000e+00    1.000000e+03    0.000000e+00   -9.255959e+61
   7.198701e+01    7.198701e+01    1.505558e+02    1.505570e+02    1.503215e+02    5.861589e+00    5.861570e+00    4.434049e+00    8.995941e-02    8.995941e-02    8.996072e-02    0.000000e+00    0.000000e+00    0.000000e+00    9.830608e-01    9.830608e-01    9.830608e-01    0.000000e+00    0.000000e+00    0.000000e+00    4.848137e-03    4.848137e-03    4.848137e-03    0.000000e+00    1.001012e+05    0.000000e+00    1.000000e+03    0.000000e+00   -9.255959e+61
   7.208698e+01    7.208698e+01    1.506072e+02    1.506083e+02    1.503510e+02    5.992263e+00    5.992242e+00    4.532105e+00    9.007829e-02    9.007829e-02    9.007967e-02    0.000000e+00    0.000000e+00    0.000000e+00    9.830608e-01    9.830608e-01    9.830608e-01    0.000000e+00    0.000000e+00    0.000000e+00    4.848137e-03    4.848137e-03    4.848137e-03    0.000000e+00    1.001057e+05    0.000000e+00    1.000000e+03    0.000000e+00   -9.255959e+61
   7.218701e+01    7.218701e+01    1.506620e+02    1.506633e+02    1.503826e+02    6.123157e+00    6.123134e+00    4.630238e+00    9.019970e-02    9.019970e-02    9.020114e-02    0.000000e+00    0.000000e+00    0.000000e+00    9.830608e-01    9.830608e-01    9.830608e-01    0.000000e+00    0.000000e+00    0.000000e+00    4.848137e-03    4.848137e-03    4.848137e-03    0.000000e+00    1.001104e+05    0.000000e+00    1.000000e+03    0.000000e+00   -9.255959e+61
   7.228698e+01    7.228698e+01    1.507205e+02    1.507218e+02    1.504162e+02    6.254015e+00    6.253990e+00    4.728313e+00    9.032348e-02    9.032347e-02    9.032498e-02    0.000000e+00    0.000000e+00    0.000000e+00    9.830608e-01    9.830608e-01    9.830608e-01    0.000000e+00    0.000000e+00    0.000000e+00    4.848137e-03    4.848137e-03    4.848137e-03    0.000000e+00    1.001151e+05    0.000000e+00    1.000000e+03    0.000000e+00   -9.255959e+61
   7.238701e+01    7.238701e+01    1.507828e+02    1.507841e+02    1.504520e+02    6.384900e+00    6.384874e+00    4.826455e+00    9.044976e-02    9.044976e-02    9.045133e-02    0.000000e+00    0.000000e+00    0.000000e+00    9.830608e-01    9.830608e-01    9.830608e-01    0.000000e+00    0.000000e+00    0.000000e+00    4.848137e-03    4.848137e-03    4.848137e-03    0.000000e+00    1.001200e+05    0.000000e+00    1.000000e+03    0.000000e+00   -9.255959e+61
   7.248698e+01    7.248698e+01    1.508490e+02    1.508503e+02    1.504901e+02    6.515970e+00    6.515942e+00    4.924546e+00    9.057838e-02    9.057838e-02    9.058002e-02    0.000000e+00    0.000000e+00    0.000000e+00    9.830608e-01    9.830608e-01    9.830608e-01    0.000000e+00    0.000000e+00    0.000000e+00    4.848137e-03    4.848137e-03    4.848137e-03    0.000000e+00    1.001249e+05    0.000000e+00    1.000000e+03    0.000000e+00   -9.255959e+61
   7.258701e+01    7.258701e+01    1.509193e+02    1.509208e+02    1.505306e+02    6.647059e+00    6.647028e+00    5.022704e+00    9.070949e-02    9.070949e-02    9.071119e-02    0.000000e+00    0.000000e+00    0.000000e+00    9.830608e-01    9.830608e-01    9.830608e-01    0.000000e+00    0.000000e+00    0.000000e+00    4.848137e-03    4.848137e-03    4.848137e-03    0.000000e+00    1.001300e+05    0.000000e+00    1.000000e+03    0.000000e+00   -9.255959e+61
   7.268698e+01    7.268698e+01    1.509938e+02    1.509954e+02    1.505734e+02    6.778180e+00    6.778147e+00    5.120808e+00    9.084291e-02    9.084290e-02    9.084467e-02    0.000000e+00    0.000000e+00    0.000000e+00    9.830608e-01    9.830608e-01    9.830608e-01    0.000000e+00    0.000000e+00    0.000000e+00    4.848137e-03    4.848137e-03    4.848137e-03    0.000000e+00    1.001351e+05    0.000000e+00    1.000000e+03    0.000000e+00   -9.255959e+61
   7.278701e+01    7.278701e+01    1.510729e+02    1.510745e+02    1.506189e+02    6.909501e+00    6.909466e+00    5.218986e+00    9.097880e-02    9.097879e-02    9.098063e-02    0.000000e+00    0.000000e+00    0.000000e+00    9.830608e-01    9.830608e-01    9.830608e-01    0.000000e+00    0.000000e+00    0.000000e+00    4.848137e-03    4.848137e-03    4.848137e-03    0.000000e+00    1.001404e+05    0.000000e+00    1.000000e+03    0.000000e+00   -9.255959e+61
   7.288698e+01    7.288698e+01    1.511565e+02    1.511581e+02    1.506669e+02    7.040594e+00    7.040558e+00    5.317103e+00    9.111697e-02    9.111697e-02    9.111888e-02    0.000000e+00    0.000000e+00    0.000000e+00    9.830608e-01    9.830608e-01    9.830608e-01    0.000000e+00    0.000000e+00    0.000000e+00    4.848137e-03    4.848137e-03    4.848137e-03    0.000000e+00    1.001457e+05    0.000000e+00    1.000000e+03    0.000000e+00   -9.255959e+61
   7.298701e+01    7.298701e+01    1.512449e+02    1.512467e+02    1.507178e+02    7.172080e+00    7.172042e+00    5.415286e+00    9.125760e-02    9.125760e-02    9.125958e-02    0.000000e+00    0.000000e+00    0.000000e+00    9.830608e-01    9.830608e-01    9.830608e-01    0.000000e+00    0.000000e+00    0.000000e+00    4.848137e-03    4.848137e-03    4.848137e-03    0.000000e+00    1.001511e+05    0.000000e+00    1.000000e+03    0.000000e+00   -9.255959e+61
   7.308698e+01    7.308698e+01    1.513383e+02    1.513400e+02    1.507714e+02    7.303392e+00    7.303352e+00    5.513415e+00    9.140049e-02    9.140050e-02    9.140256e-02    0.000000e+00    0.000000e+00    0.000000e+00    9.830608e-01    9.830608e-01    9.830608e-01    0.000000e+00    0.000000e+00    0.000000e+00    4.848137e-03    4.848137e-03    4.848137e-03    0.000000e+00    1.001567e+05    0.000000e+00    1.000000e+03    0.000000e+00   -9.255959e+61
   7.318701e+01    7.318701e+01    1.514368e+02    1.514386e+02    1.508280e+02    7.434990e+00    7.434948e+00    5.611617e+00    9.154583e-02    9.154584e-02    9.154797e-02    0.000000e+00    0.000000e+00    0.000000e+00    9.830608e-01    9.830608e-01    9.830608e-01    0.000000e+00    0.000000e+00    0.000000e+00    4.848137e-03    4.848137e-03    4.848137e-03    0.000000e+00    1.001623e+05    0.000000e+00    1.000000e+03    0.000000e+00   -9.255959e+61
   7.328698e+01    7.328698e+01    1.515406e+02    1.515424e+02    1.508877e+02    7.566493e+00    7.566449e+00    5.709756e+00    9.169341e-02    9.169340e-02    9.169562e-02    0.000000e+00    0.000000e+00    0.000000e+00    9.830608e-01    9.830608e-01    9.830608e-01    0.000000e+00    0.000000e+00    0.000000e+00    4.848137e-03    4.848137e-03    4.848137e-03    0.000000e+00    1.001681e+05    0.000000e+00    1.000000e+03    0.000000e+00   -9.255959e+61
   7.338701e+01    7.338701e+01    1.516499e+02    1.516519e+02    1.509505e+02    7.698212e+00    7.698165e+00    5.807961e+00    9.184338e-02    9.184338e-02    9.184567e-02    0.000000e+00    0.000000e+00    0.000000e+00    9.830608e-01    9.830608e-01    9.830608e-01    0.000000e+00    0.000000e+00    0.000000e+00    4.848137e-03    4.848137e-03    4.848137e-03    0.000000e+00    1.001739e+05    0.000000e+00    1.000000e+03    0.000000e+00   -9.255959e+61
   7.348698e+01    7.348698e+01    1.517649e+02    1.517669e+02    1.510166e+02    7.829804e+00    7.829755e+00    5.906110e+00    9.199557e-02    9.199557e-02    9.199795e-02    0.000000e+00    0.000000e+00    0.000000e+00    9.830608e-01    9.830608e-01    9.830608e-01    0.000000e+00    0.000000e+00    0.000000e+00    4.848137e-03    4.848137e-03    4.848137e-03    0.000000e+00    1.001798e+05    0.000000e+00    1.000000e+03    0.000000e+00   -9.255959e+61
   7.358701e+01    7.358701e+01    1.518858e+02    1.518878e+02    1.510861e+02    7.961676e+00    7.961624e+00    6.004323e+00    9.215015e-02    9.215016e-02    9.215261e-02    0.000000e+00    0.000000e+00    0.000000e+00    9.830608e-01    9.830608e-01    9.830608e-01    0.000000e+00    0.000000e+00    0.000000e+00    4.848137e-03    4.848137e-03    4.848137e-03    0.000000e+00    1.001859e+05    0.000000e+00    1.000000e+03    0.000000e+00   -9.255959e+61
   7.368698e+01    7.368698e+01    1.520126e+02    1.520148e+02    1.511590e+02    8.093594e+00    8.093540e+00    6.102479e+00    9.230693e-02    9.230694e-02    9.230947e-02    0.000000e+00    0.000000e+00    0.000000e+00    9.830608e-01    9.830608e-01    9.830608e-01    0.000000e+00    0.000000e+00    0.000000e+00    4.848137e-03    4.848137e-03    4.848137e-03    0.000000e+00    1.001920e+05    0.000000e+00    1.000000e+03    0.000000e+00   -9.255959e+61
   7.378701e+01    7.378701e+01    1.521459e+02    1.521481e+02    1.512356e+02    8.225652e+00    8.225595e+00    6.200708e+00    9.246610e-02    9.246610e-02    9.246872e-02    0.000000e+00    0.000000e+00    0.000000e+00    9.830608e-01    9.830608e-01    9.830608e-01    0.000000e+00    0.000000e+00    0.000000e+00    4.848137e-03    4.848137e-03    4.848137e-03    0.000000e+00    1.001983e+05    0.000000e+00    1.000000e+03    0.000000e+00   -9.255959e+61
   7.388698e+01    7.388698e+01    1.522854e+02    1.522877e+02    1.513158e+02    8.357722e+00    8.357662e+00    6.298873e+00    9.262743e-02    9.262742e-02    9.263012e-02    0.000000e+00    0.000000e+00    0.000000e+00    9.830608e-01    9.830608e-01    9.830608e-01    0.000000e+00    0.000000e+00    0.000000e+00    4.848137e-03    4.848137e-03    4.848137e-03    0.000000e+00    1.002046e+05    0.000000e+00    1.000000e+03    0.000000e+00   -9.255959e+61
   7.398701e+01    7.398701e+01    1.524317e+02    1.524341e+02    1.513999e+02    8.489838e+00    8.489775e+00    6.397100e+00    9.279110e-02    9.279108e-02    9.279386e-02    0.000000e+00    0.000000e+00    0.000000e+00    9.830608e-01    9.830608e-01    9.830608e-01    0.000000e+00    0.000000e+00    0.000000e+00    4.848137e-03    4.848137e-03    4.848137e-03    0.000000e+00    1.002110e+05    0.000000e+00    1.000000e+03    0.000000e+00   -9.255959e+61
   7.408698e+01    7.408698e+01    1.525848e+02    1.525872e+02    1.514879e+02    8.622130e+00    8.622065e+00    6.495272e+00    9.295690e-02    9.295689e-02    9.295975e-02    0.000000e+00    0.000000e+00    0.000000e+00    9.830608e-01    9.830608e-01    9.830608e-01    0.000000e+00    0.000000e+00    0.000000e+00    4.848137e-03    4.848137e-03    4.848137e-03    0.000000e+00    1.002176e+05    0.000000e+00    1.000000e+03    0.000000e+00   -9.255959e+61
   7.418701e+01    7.418701e+01    1.527450e+02    1.527475e+02    1.515800e+02    8.754546e+00    8.754478e+00    6.593514e+00    9.312504e-02    9.312504e-02    9.312798e-02    0.000000e+00    0.000000e+00    0.000000e+00    9.830608e-01    9.830608e-01    9.830608e-01    0.000000e+00    0.000000e+00    0.000000e+00    4.848137e-03    4.848137e-03    4.848137e-03    0.000000e+00    1.002242e+05    0.000000e+00    1.000000e+03    0.000000e+00   -9.255959e+61
   7.428698e+01    7.428698e+01    1.529124e+02    1.529148e+02    1.516762e+02    8.886912e+00    8.886841e+00    6.691692e+00    9.329529e-02    9.329529e-02    9.329831e-02    0.000000e+00    0.000000e+00    0.000000e+00    9.830608e-01    9.830608e-01    9.830608e-01    0.000000e+00    0.000000e+00    0.000000e+00    4.848137e-03    4.848137e-03    4.848137e-03    0.000000e+00    1.002309e+05    0.000000e+00    1.000000e+03    0.000000e+00   -9.255959e+61
   7.438701e+01    7.438701e+01    1.530873e+02    1.530899e+02    1.517768e+02    9.019440e+00    9.019366e+00    6.789933e+00    9.346785e-02    9.346784e-02    9.347095e-02    0.000000e+00    0.000000e+00    0.000000e+00    9.830608e-01    9.830608e-01    9.830608e-01    0.000000e+00    0.000000e+00    0.000000e+00    4.848137e-03    4.848137e-03    4.848137e-03    0.000000e+00    1.002378e+05    0.000000e+00    1.000000e+03    0.000000e+00   -9.255959e+61
   7.448698e+01    7.448698e+01    1.532697e+02    1.532723e+02    1.518817e+02    9.152108e+00    9.152029e+00    6.888116e+00    9.364250e-02    9.364248e-02    9.364567e-02    0.000000e+00    0.000000e+00    0.000000e+00    9.830608e-01    9.830608e-01    9.830608e-01    0.000000e+00    0.000000e+00    0.000000e+00    4.848137e-03    4.848137e-03    4.848137e-03    0.000000e+00    1.002447e+05    0.000000e+00    1.000000e+03    0.000000e+00   -9.255959e+61
   7.458701e+01    7.458701e+01    1.534601e+02    1.534629e+02    1.519913e+02    9.284942e+00    9.284859e+00    6.986364e+00    9.381943e-02    9.381941e-02    9.382268e-02    0.000000e+00    0.000000e+00    0.000000e+00    9.830608e-01    9.830608e-01    9.830608e-01    0.000000e+00    0.000000e+00    0.000000e+00    4.848137e-03    4.848137e-03    4.848137e-03    0.000000e+00    1.002517e+05    0.000000e+00    1.000000e+03    0.000000e+00   -9.255959e+61
   7.468698e+01    7.468698e+01    1.536585e+02    1.536613e+02    1.521054e+02    9.417713e+00    9.417625e+00    7.084554e+00    9.399842e-02    9.399840e-02    9.400175e-02    0.000000e+00    0.000000e+00    0.000000e+00    9.830608e-01    9.830608e-01    9.830608e-01    0.000000e+00    0.000000e+00    0.000000e+00    4.848137e-03    4.848137e-03    4.848137e-03    0.000000e+00    1.002589e+05    0.000000e+00    1.000000e+03    0.000000e+00   -9.255959e+61
   7.478701e+01    7.478701e+01    1.538653e+02    1.538682e+02    1.522244e+02    9.550563e+00    9.550471e+00    7.182813e+00    9.417967e-02    9.417965e-02    9.418310e-02    0.000000e+00    0.000000e+00    0.000000e+00    9.830608e-01    9.830608e-01    9.830608e-01    0.000000e+00    0.000000e+00    0.000000e+00    4.848137e-03    4.848137e-03    4.848137e-03    0.000000e+00    1.002661e+05    0.000000e+00    1.000000e+03    0.000000e+00   -9.255959e+61
   7.488698e+01    7.488698e+01    1.540805e+02    1.540835e+02    1.523482e+02    9.683362e+00    9.683266e+00    7.281006e+00    9.436294e-02    9.436293e-02    9.436647e-02    0.000000e+00    0.000000e+00    0.000000e+00    9.830608e-01    9.830608e-01    9.830608e-01    0.000000e+00    0.000000e+00    0.000000e+00    4.848137e-03    4.848137e-03    4.848137e-03    0.000000e+00    1.002734e+05    0.000000e+00    1.000000e+03    0.000000e+00   -9.255959e+61
   7.498701e+01    7.498701e+01    1.543045e+02    1.543075e+02    1.524772e+02    9.816538e+00    9.816438e+00    7.379263e+00    9.454846e-02    9.454845e-02    9.455207e-02    0.000000e+00    0.000000e+00    0.000000e+00    9.830608e-01    9.830608e-01    9.830608e-01    0.000000e+00    0.000000e+00    0.000000e+00    4.848137e-03    4.848137e-03    4.848137e-03    0.000000e+00    1.002809e+05    0.000000e+00    1.000000e+03    0.000000e+00   -9.255959e+61
   7.508698e+01    7.508698e+01    1.545372e+02    1.545403e+02    1.526112e+02    9.949619e+00    9.949515e+00    7.477462e+00    9.473598e-02    9.473597e-02    9.473969e-02    0.000000e+00    0.000000e+00    0.000000e+00    9.830608e-01    9.830608e-01    9.830608e-01    0.000000e+00    0.000000e+00    0.000000e+00    4.848137e-03    4.848137e-03    4.848137e-03    0.000000e+00    1.002884e+05    0.000000e+00    1.000000e+03    0.000000e+00   -9.255959e+61
   7.518701e+01    7.518701e+01    1.547793e+02    1.547825e+02    1.527507e+02    1.008293e+01    1.008283e+01    7.575732e+00    9.492573e-02    9.492573e-02    9.492954e-02    0.000000e+00    0.000000e+00    0.000000e+00    9.830608e-01    9.830608e-01    9.830608e-01    0.000000e+00    0.000000e+00    0.000000e+00    4.848137e-03    4.848137e-03    4.848137e-03    0.000000e+00    1.002960e+05    0.000000e+00    1.000000e+03    0.000000e+00   -9.255959e+61
   7.528698e+01    7.528698e+01    1.550305e+02    1.550338e+02    1.528954e+02    1.021622e+01    1.021611e+01    7.673934e+00    9.511744e-02    9.511745e-02    9.512135e-02    0.000000e+00    0.000000e+00    0.000000e+00    9.830608e-01    9.830608e-01    9.830608e-01    0.000000e+00    0.000000e+00    0.000000e+00    4.848137e-03    4.848137e-03    4.848137e-03    0.000000e+00    1.003037e+05    0.000000e+00    1.000000e+03    0.000000e+00   -9.255959e+61
   7.538701e+01    7.538701e+01    1.552915e+02    1.552948e+02    1.530458e+02    1.034960e+01    1.034949e+01    7.772199e+00    9.531134e-02    9.531136e-02    9.531535e-02    0.000000e+00    0.000000e+00    0.000000e+00    9.830608e-01    9.830608e-01    9.830608e-01    0.000000e+00    0.000000e+00    0.000000e+00    4.848137e-03    4.848137e-03    4.848137e-03    0.000000e+00    1.003116e+05    0.000000e+00    1.000000e+03    0.000000e+00   -9.255959e+61
   7.548698e+01    7.548698e+01    1.555620e+02    1.555655e+02    1.532019e+02    1.048311e+01    1.048299e+01    7.870406e+00    9.550720e-02    9.550721e-02    9.551130e-02    0.000000e+00    0.000000e+00    0.000000e+00    9.830608e-01    9.830608e-01    9.830608e-01    0.000000e+00    0.000000e+00    0.000000e+00    4.848137e-03    4.848137e-03    4.848137e-03    0.000000e+00    1.003195e+05    0.000000e+00    1.000000e+03    0.000000e+00   -9.255959e+61
   7.558701e+01    7.558701e+01    1.558428e+02    1.558463e+02    1.533638e+02    1.061678e+01    1.061666e+01    7.968676e+00    9.570523e-02    9.570524e-02    9.570943e-02    0.000000e+00    0.000000e+00    0.000000e+00    9.830608e-01    9.830608e-01    9.830608e-01    0.000000e+00    0.000000e+00    0.000000e+00    4.848137e-03    4.848137e-03    4.848137e-03    0.000000e+00    1.003275e+05    0.000000e+00    1.000000e+03    0.000000e+00   -9.255959e+61
   7.568698e+01    7.568698e+01    1.561335e+02    1.561372e+02    1.535316e+02    1.075046e+01    1.075033e+01    8.066887e+00    9.590518e-02    9.590519e-02    9.590948e-02    0.000000e+00    0.000000e+00    0.000000e+00    9.830608e-01    9.830608e-01    9.830608e-01    0.000000e+00    0.000000e+00    0.000000e+00    4.848137e-03    4.848137e-03    4.848137e-03    0.000000e+00    1.003356e+05    0.000000e+00    1.000000e+03    0.000000e+00   -9.255959e+61
   7.578701e+01    7.578701e+01    1.564349e+02    1.564387e+02    1.537056e+02    1.088433e+01    1.088420e+01    8.165167e+00    9.610729e-02    9.610731e-02    9.611169e-02    0.000000e+00    0.000000e+00    0.000000e+00    9.830608e-01    9.830608e-01    9.830608e-01    0.000000e+00    0.000000e+00    0.000000e+00    4.848137e-03    4.848137e-03    4.848137e-03    0.000000e+00    1.003439e+05    0.000000e+00    1.000000e+03    0.000000e+00   -9.255959e+61
   7.588698e+01    7.588698e+01    1.567467e+02    1.567505e+02    1.538856e+02    1.101832e+01    1.101818e+01    8.263381e+00    9.631128e-02    9.631130e-02    9.631578e-02    0.000000e+00    0.000000e+00    0.000000e+00    9.830608e-01    9.830608e-01    9.830608e-01    0.000000e+00    0.000000e+00    0.000000e+00    4.848137e-03    4.848137e-03    4.848137e-03    0.000000e+00    1.003522e+05    0.000000e+00    1.000000e+03    0.000000e+00   -9.255959e+61
   7.598701e+01    7.598701e+01    1.570696e+02    1.570735e+02    1.540722e+02    1.115249e+01    1.115234e+01    8.361656e+00    9.651739e-02    9.651741e-02    9.652200e-02    0.000000e+00    0.000000e+00    0.000000e+00    9.830608e-01    9.830608e-01    9.830608e-01    0.000000e+00    0.000000e+00    0.000000e+00    4.848137e-03    4.848137e-03    4.848137e-03    0.000000e+00    1.003606e+05    0.000000e+00    1.000000e+03    0.000000e+00   -9.255959e+61
   7.608698e+01    7.608698e+01    1.574034e+02    1.574074e+02    1.542651e+02    1.128655e+01    1.128639e+01    8.459873e+00    9.672536e-02    9.672539e-02    9.673008e-02    0.000000e+00    0.000000e+00    0.000000e+00    9.830608e-01    9.830608e-01    9.830608e-01    0.000000e+00    0.000000e+00    0.000000e+00    4.848137e-03    4.848137e-03    4.848137e-03    0.000000e+00    1.003691e+05    0.000000e+00    1.000000e+03    0.000000e+00   -9.255959e+61
   7.618701e+01    7.618701e+01    1.577487e+02    1.577528e+02    1.544648e+02    1.142094e+01    1.142077e+01    8.558159e+00    9.693546e-02    9.693548e-02    9.694029e-02    0.000000e+00    0.000000e+00    0.000000e+00    9.830608e-01    9.830608e-01    9.830608e-01    0.000000e+00    0.000000e+00    0.000000e+00    4.848137e-03    4.848137e-03    4.848137e-03    0.000000e+00    1.003777e+05    0.000000e+00    1.000000e+03    0.000000e+00   -9.255959e+61
   7.628698e+01    7.628698e+01    1.581052e+02    1.581094e+02    1.546711e+02    1.155525e+01    1.155508e+01    8.656380e+00    9.714737e-02    9.714740e-02    9.715231e-02    0.000000e+00    0.000000e+00    0.000000e+00    9.830608e-01    9.830608e-01    9.830608e-01    0.000000e+00    0.000000e+00    0.000000e+00    4.848137e-03    4.848137e-03    4.848137e-03    0.000000e+00    1.003865e+05    0.000000e+00    1.000000e+03    0.000000e+00   -9.255959e+61
   7.638701e+01    7.638701e+01    1.584737e+02    1.584780e+02    1.548845e+02    1.168977e+01    1.168960e+01    8.754661e+00    9.736137e-02    9.736140e-02    9.736641e-02    0.000000e+00    0.000000e+00    0.000000e+00    9.830608e-01    9.830608e-01    9.830608e-01    0.000000e+00    0.000000e+00    0.000000e+00    4.848137e-03    4.848137e-03    4.848137e-03    0.000000e+00    1.003953e+05    0.000000e+00    1.000000e+03    0.000000e+00   -9.255959e+61
   7.648698e+01    7.648698e+01    1.588539e+02    1.588582e+02    1.551047e+02    1.182427e+01    1.182409e+01    8.852884e+00    9.757717e-02    9.757721e-02    9.758233e-02    0.000000e+00    0.000000e+00    0.000000e+00    9.830608e-01    9.830608e-01    9.830608e-01    0.000000e+00    0.000000e+00    0.000000e+00    4.848137e-03    4.848137e-03    4.848137e-03    0.000000e+00    1.004042e+05    0.000000e+00    1.000000e+03    0.000000e+00   -9.255959e+61
   7.658701e+01    7.658701e+01    1.592464e+02    1.592509e+02    1.553322e+02    1.195905e+01    1.195886e+01    8.951168e+00    9.779503e-02    9.779506e-02    9.780031e-02    0.000000e+00    0.000000e+00    0.000000e+00    9.830608e-01    9.830608e-01    9.830608e-01    0.000000e+00    0.000000e+00    0.000000e+00    4.848137e-03    4.848137e-03    4.848137e-03    0.000000e+00    1.004132e+05    0.000000e+00    1.000000e+03    0.000000e+00   -9.255959e+61
   7.668698e+01    7.668698e+01    1.596511e+02    1.596557e+02    1.555669e+02    1.209385e+01    1.209365e+01    9.049395e+00    9.801467e-02    9.801470e-02    9.802006e-02    0.000000e+00    0.000000e+00    0.000000e+00    9.830608e-01    9.830608e-01    9.830608e-01    0.000000e+00    0.000000e+00    0.000000e+00    4.848137e-03    4.848137e-03    4.848137e-03    0.000000e+00    1.004223e+05    0.000000e+00    1.000000e+03    0.000000e+00   -9.255959e+61
   7.678701e+01    7.678701e+01    1.600687e+02    1.600733e+02    1.558093e+02    1.222877e+01    1.222857e+01    9.147694e+00    9.823636e-02    9.823638e-02    9.824187e-02    0.000000e+00    0.000000e+00    0.000000e+00    9.830608e-01    9.830608e-01    9.830608e-01    0.000000e+00    0.000000e+00    0.000000e+00    4.848137e-03    4.848137e-03    4.848137e-03    0.000000e+00    1.004315e+05    0.000000e+00    1.000000e+03    0.000000e+00   -9.255959e+61
   7.688698e+01    7.688698e+01    1.604987e+02    1.605034e+02    1.560590e+02    1.236376e+01    1.236355e+01    9.245923e+00    9.845979e-02    9.845981e-02    9.846540e-02    0.000000e+00    0.000000e+00    0.000000e+00    9.830608e-01    9.830608e-01    9.830608e-01    0.000000e+00    0.000000e+00    0.000000e+00    4.848137e-03    4.848137e-03    4.848137e-03    0.000000e+00    1.004408e+05    0.000000e+00    1.000000e+03    0.000000e+00   -9.255959e+61
   7.698701e+01    7.698701e+01    1.609420e+02    1.609467e+02    1.563166e+02    1.249901e+01    1.249880e+01    9.344213e+00    9.868523e-02    9.868525e-02    9.869096e-02    0.000000e+00    0.000000e+00    0.000000e+00    9.830608e-01    9.830608e-01    9.830608e-01    0.000000e+00    0.000000e+00    0.000000e+00    4.848137e-03    4.848137e-03    4.848137e-03    0.000000e+00    1.004502e+05    0.000000e+00    1.000000e+03    0.000000e+00   -9.255959e+61
   7.708698e+01    7.708698e+01    1.613981e+02    1.614031e+02    1.565818e+02    1.263427e+01    1.263404e+01    9.442443e+00    9.891239e-02    9.891241e-02    9.891824e-02    0.000000e+00    0.000000e+00    0.000000e+00    9.830608e-01    9.830608e-01    9.830608e-01    0.000000e+00    0.000000e+00    0.000000e+00    4.848137e-03    4.848137e-03    4.848137e-03    0.000000e+00    1.004597e+05    0.000000e+00    1.000000e+03    0.000000e+00   -9.255959e+61
   7.718701e+01    7.718701e+01    1.618680e+02    1.618730e+02    1.568553e+02    1.276970e+01    1.276947e+01    9.540744e+00    9.914156e-02    9.914158e-02    9.914752e-02    0.000000e+00    0.000000e+00    0.000000e+00    9.830608e-01    9.830608e-01    9.830608e-01    0.000000e+00    0.000000e+00    0.000000e+00    4.848137e-03    4.848137e-03    4.848137e-03    0.000000e+00    1.004694e+05    0.000000e+00    1.000000e+03    0.000000e+00   -9.255959e+61
   7.728698e+01    7.728698e+01    1.623512e+02    1.623563e+02    1.571367e+02    1.290512e+01    1.290488e+01    9.638976e+00    9.937239e-02    9.937243e-02    9.937848e-02    0.000000e+00    0.000000e+00    0.000000e+00    9.830608e-01    9.830608e-01    9.830608e-01    0.000000e+00    0.000000e+00    0.000000e+00    4.848137e-03    4.848137e-03    4.848137e-03    0.000000e+00    1.004791e+05    0.000000e+00    1.000000e+03    0.000000e+00   -9.255959e+61
   7.738701e+01    7.738701e+01    1.628484e+02    1.628536e+02    1.574265e+02    1.304091e+01    1.304067e+01    9.737271e+00    9.960520e-02    9.960524e-02    9.961140e-02    0.000000e+00    0.000000e+00    0.000000e+00    9.830608e-01    9.830608e-01    9.830608e-01    0.000000e+00    0.000000e+00    0.000000e+00    4.848137e-03    4.848137e-03    4.848137e-03    0.000000e+00    1.004889e+05    0.000000e+00    1.000000e+03    0.000000e+00   -9.255959e+61
   7.748698e+01    7.748698e+01    1.633594e+02    1.633646e+02    1.577245e+02    1.317667e+01    1.317642e+01    9.835506e+00    9.983966e-02    9.983972e-02    9.984599e-02    0.000000e+00    0.000000e+00    0.000000e+00    9.830608e-01    9.830608e-01    9.830608e-01    0.000000e+00    0.000000e+00    0.000000e+00    4.848137e-03    4.848137e-03    4.848137e-03    0.000000e+00    1.004988e+05    0.000000e+00    1.000000e+03    0.000000e+00   -9.255959e+61
   7.758701e+01    7.758701e+01    1.638848e+02    1.638901e+02    1.580313e+02    1.331264e+01    1.331238e+01    9.933802e+00    1.000761e-01    1.000761e-01    1.000825e-01    0.000000e+00    0.000000e+00    0.000000e+00    9.830608e-01    9.830608e-01    9.830608e-01    0.000000e+00    0.000000e+00    0.000000e+00    4.848137e-03    4.848137e-03    4.848137e-03    0.000000e+00    1.005088e+05    0.000000e+00    1.000000e+03    0.000000e+00   -9.255959e+61
   7.768698e+01    7.768698e+01    1.644243e+02    1.644297e+02    1.583465e+02    1.344868e+01    1.344841e+01    1.003204e+01    1.003141e-01    1.003142e-01    1.003207e-01    0.000000e+00    0.000000e+00    0.000000e+00    9.830608e-01    9.830608e-01    9.830608e-01    0.000000e+00    0.000000e+00    0.000000e+00    4.848137e-03    4.848137e-03    4.848137e-03    0.000000e+00    1.005189e+05    0.000000e+00    1.000000e+03    0.000000e+00   -9.255959e+61
   7.778701e+01    7.778701e+01    1.649787e+02    1.649842e+02    1.586707e+02    1.358486e+01    1.358458e+01    1.013035e+01    1.005541e-01    1.005542e-01    1.005608e-01    0.000000e+00    0.000000e+00    0.000000e+00    9.830608e-01    9.830608e-01    9.830608e-01    0.000000e+00    0.000000e+00    0.000000e+00    4.848137e-03    4.848137e-03    4.848137e-03    0.000000e+00    1.005291e+05    0.000000e+00    1.000000e+03    0.000000e+00   -9.255959e+61
   7.788698e+01    7.788698e+01    1.655475e+02    1.655531e+02    1.590036e+02    1.372105e+01    1.372077e+01    1.022858e+01    1.007957e-01    1.007957e-01    1.008025e-01    0.000000e+00    0.000000e+00    0.000000e+00    9.830608e-01    9.830608e-01    9.830608e-01    0.000000e+00    0.000000e+00    0.000000e+00    4.848137e-03    4.848137e-03    4.848137e-03    0.000000e+00    1.005393e+05    0.000000e+00    1.000000e+03    0.000000e+00   -9.255959e+61
   7.798701e+01    7.798701e+01    1.661316e+02    1.661373e+02    1.593458e+02    1.385747e+01    1.385717e+01    1.032688e+01    1.010392e-01    1.010392e-01    1.010461e-01    0.000000e+00    0.000000e+00    0.000000e+00    9.830608e-01    9.830608e-01    9.830608e-01    0.000000e+00    0.000000e+00    0.000000e+00    4.848137e-03    4.848137e-03    4.848137e-03    0.000000e+00    1.005497e+05    0.000000e+00    1.000000e+03    0.000000e+00   -9.255959e+61
   7.808698e+01    7.808698e+01    1.667305e+02    1.667362e+02    1.596970e+02    1.399393e+01    1.399362e+01    1.042513e+01    1.012842e-01    1.012843e-01    1.012913e-01    0.000000e+00    0.000000e+00    0.000000e+00    9.830608e-01    9.830608e-01    9.830608e-01    0.000000e+00    0.000000e+00    0.000000e+00    4.848137e-03    4.848137e-03    4.848137e-03    0.000000e+00    1.005602e+05    0.000000e+00    1.000000e+03    0.000000e+00   -9.255959e+61
   7.818701e+01    7.818701e+01    1.673450e+02    1.673508e+02    1.600577e+02    1.413056e+01    1.413025e+01    1.052344e+01    1.015312e-01    1.015312e-01    1.015384e-01    0.000000e+00    0.000000e+00    0.000000e+00    9.830608e-01    9.830608e-01    9.830608e-01    0.000000e+00    0.000000e+00    0.000000e+00    4.848137e-03    4.848137e-03    4.848137e-03    0.000000e+00    1.005708e+05    0.000000e+00    1.000000e+03    0.000000e+00   -9.255959e+61
   7.828698e+01    7.828698e+01    1.679746e+02    1.679806e+02    1.604276e+02    1.426726e+01    1.426693e+01    1.062168e+01    1.017797e-01    1.017797e-01    1.017870e-01    0.000000e+00    0.000000e+00    0.000000e+00    9.830608e-01    9.830608e-01    9.830608e-01    0.000000e+00    0.000000e+00    0.000000e+00    4.848137e-03    4.848137e-03    4.848137e-03    0.000000e+00    1.005815e+05    0.000000e+00    1.000000e+03    0.000000e+00   -9.255959e+61
   7.838701e+01    7.838701e+01    1.686203e+02    1.686263e+02    1.608073e+02    1.440419e+01    1.440386e+01    1.071998e+01    1.020300e-01    1.020301e-01    1.020374e-01    0.000000e+00    0.000000e+00    0.000000e+00    9.830608e-01    9.830608e-01    9.830608e-01    0.000000e+00    0.000000e+00    0.000000e+00    4.848137e-03    4.848137e-03    4.848137e-03    0.000000e+00    1.005923e+05    0.000000e+00    1.000000e+03    0.000000e+00   -9.255959e+61
   7.848698e+01    7.848698e+01    1.692814e+02    1.692875e+02    1.611965e+02    1.454114e+01    1.454079e+01    1.081823e+01    1.022819e-01    1.022819e-01    1.022894e-01    0.000000e+00    0.000000e+00    0.000000e+00    9.830608e-01    9.830608e-01    9.830608e-01    0.000000e+00    0.000000e+00    0.000000e+00    4.848137e-03    4.848137e-03    4.848137e-03    0.000000e+00    1.006032e+05    0.000000e+00    1.000000e+03    0.000000e+00   -9.255959e+61
   7.858701e+01    7.858701e+01    1.699589e+02    1.699651e+02    1.615957e+02    1.467834e+01    1.467798e+01    1.091654e+01    1.025356e-01    1.025356e-01    1.025432e-01    0.000000e+00    0.000000e+00    0.000000e+00    9.830608e-01    9.830608e-01    9.830608e-01    0.000000e+00    0.000000e+00    0.000000e+00    4.848137e-03    4.848137e-03    4.848137e-03    0.000000e+00    1.006142e+05    0.000000e+00    1.000000e+03    0.000000e+00   -9.255959e+61
   7.868698e+01    7.868698e+01    1.706521e+02    1.706583e+02    1.620047e+02    1.481548e+01    1.481512e+01    1.101478e+01    1.027908e-01    1.027908e-01    1.027985e-01    0.000000e+00    0.000000e+00    0.000000e+00    9.830608e-01    9.830608e-01    9.830608e-01    0.000000e+00    0.000000e+00    0.000000e+00    4.848137e-03    4.848137e-03    4.848137e-03    0.000000e+00    1.006253e+05    0.000000e+00    1.000000e+03    0.000000e+00   -9.255959e+61
   7.878701e+01    7.878701e+01    1.713621e+02    1.713684e+02    1.624240e+02    1.495299e+01    1.495261e+01    1.111310e+01    1.030478e-01    1.030478e-01    1.030557e-01    0.000000e+00    0.000000e+00    0.000000e+00    9.830608e-01    9.830608e-01    9.830608e-01    0.000000e+00    0.000000e+00    0.000000e+00    4.848137e-03    4.848137e-03    4.848137e-03    0.000000e+00    1.006364e+05    0.000000e+00    1.000000e+03    0.000000e+00   -9.255959e+61
   7.888698e+01    7.888698e+01    1.720880e+02    1.720944e+02    1.628532e+02    1.509059e+01    1.509020e+01    1.121135e+01    1.033063e-01    1.033063e-01    1.033143e-01    0.000000e+00    0.000000e+00    0.000000e+00    9.830608e-01    9.830608e-01    9.830608e-01    0.000000e+00    0.000000e+00    0.000000e+00    4.848137e-03    4.848137e-03    4.848137e-03    0.000000e+00    1.006477e+05    0.000000e+00    1.000000e+03    0.000000e+00   -9.255959e+61
   7.898701e+01    7.898701e+01    1.728310e+02    1.728376e+02    1.632929e+02    1.522841e+01    1.522801e+01    1.130966e+01    1.035665e-01    1.035666e-01    1.035747e-01    0.000000e+00    0.000000e+00    0.000000e+00    9.830608e-01    9.830608e-01    9.830608e-01    0.000000e+00    0.000000e+00    0.000000e+00    4.848137e-03    4.848137e-03    4.848137e-03    0.000000e+00    1.006591e+05    0.000000e+00    1.000000e+03    0.000000e+00   -9.255959e+61
   7.908698e+01    7.908698e+01    1.735904e+02    1.735969e+02    1.637429e+02    1.536621e+01    1.536580e+01    1.140791e+01    1.038282e-01    1.038283e-01    1.038365e-01    0.000000e+00    0.000000e+00    0.000000e+00    9.830608e-01    9.830608e-01    9.830608e-01    0.000000e+00    0.000000e+00    0.000000e+00    4.848137e-03    4.848137e-03    4.848137e-03    0.000000e+00    1.006706e+05    0.000000e+00    1.000000e+03    0.000000e+00   -9.255959e+61
   7.918701e+01    7.918701e+01    1.743671e+02    1.743738e+02    1.642037e+02    1.550428e+01    1.550385e+01    1.150623e+01    1.040917e-01    1.040918e-01    1.041001e-01    0.000000e+00    0.000000e+00    0.000000e+00    9.830608e-01    9.830608e-01    9.830608e-01    0.000000e+00    0.000000e+00    0.000000e+00    4.848137e-03    4.848137e-03    4.848137e-03    0.000000e+00    1.006821e+05    0.000000e+00    1.000000e+03    0.000000e+00   -9.255959e+61
   7.928698e+01    7.928698e+01    1.751604e+02    1.751673e+02    1.646748e+02    1.564248e+01    1.564204e+01    1.160448e+01    1.043566e-01    1.043566e-01    1.043651e-01    0.000000e+00    0.000000e+00    0.000000e+00    9.830608e-01    9.830608e-01    9.830608e-01    0.000000e+00    0.000000e+00    0.000000e+00    4.848137e-03    4.848137e-03    4.848137e-03    0.000000e+00    1.006938e+05    0.000000e+00    1.000000e+03    0.000000e+00   -9.255959e+61
   7.938701e+01    7.938701e+01    1.759714e+02    1.759782e+02    1.651571e+02    1.578079e+01    1.578034e+01    1.170279e+01    1.046232e-01    1.046233e-01    1.046319e-01    0.000000e+00    0.000000e+00    0.000000e+00    9.830608e-01    9.830608e-01    9.830608e-01    0.000000e+00    0.000000e+00    0.000000e+00    4.848137e-03    4.848137e-03    4.848137e-03    0.000000e+00    1.007056e+05    0.000000e+00    1.000000e+03    0.000000e+00   -9.255959e+61
   7.948698e+01    7.948698e+01    1.767992e+02    1.768062e+02    1.656499e+02    1.591905e+01    1.591859e+01    1.180104e+01    1.048912e-01    1.048913e-01    1.049000e-01    0.000000e+00    0.000000e+00    0.000000e+00    9.830608e-01    9.830608e-01    9.830608e-01    0.000000e+00    0.000000e+00    0.000000e+00    4.848137e-03    4.848137e-03    4.848137e-03    0.000000e+00    1.007174e+05    0.000000e+00    1.000000e+03    0.000000e+00   -9.255959e+61
   7.958701e+01    7.958701e+01    1.776449e+02    1.776519e+02    1.661540e+02    1.605764e+01    1.605716e+01    1.189936e+01    1.051610e-01    1.051610e-01    1.051699e-01    0.000000e+00    0.000000e+00    0.000000e+00    9.830608e-01    9.830608e-01    9.830608e-01    0.000000e+00    0.000000e+00    0.000000e+00    4.848137e-03    4.848137e-03    4.848137e-03    0.000000e+00    1.007294e+05    0.000000e+00    1.000000e+03    0.000000e+00   -9.255959e+61
   7.968698e+01    7.968698e+01    1.785077e+02    1.785149e+02    1.666689e+02    1.619634e+01    1.619585e+01    1.199761e+01    1.054321e-01    1.054321e-01    1.054412e-01    0.000000e+00    0.000000e+00    0.000000e+00    9.830608e-01    9.830608e-01    9.830608e-01    0.000000e+00    0.000000e+00    0.000000e+00    4.848137e-03    4.848137e-03    4.848137e-03    0.000000e+00    1.007414e+05    0.000000e+00    1.000000e+03    0.000000e+00   -9.255959e+61
   7.978701e+01    7.978701e+01    1.793888e+02    1.793961e+02    1.671954e+02    1.633526e+01    1.633475e+01    1.209593e+01    1.057049e-01    1.057049e-01    1.057141e-01    0.000000e+00    0.000000e+00    0.000000e+00    9.830608e-01    9.830608e-01    9.830608e-01    0.000000e+00    0.000000e+00    0.000000e+00    4.848137e-03    4.848137e-03    4.848137e-03    0.000000e+00    1.007536e+05    0.000000e+00    1.000000e+03    0.000000e+00   -9.255959e+61
   7.988698e+01    7.988698e+01    1.802872e+02    1.802944e+02    1.677329e+02    1.647432e+01    1.647380e+01    1.219419e+01    1.059790e-01    1.059791e-01    1.059884e-01    0.000000e+00    0.000000e+00    0.000000e+00    9.830608e-01    9.830608e-01    9.830608e-01    0.000000e+00    0.000000e+00    0.000000e+00    4.848137e-03    4.848137e-03    4.848137e-03    0.000000e+00    1.007659e+05    0.000000e+00    1.000000e+03    0.000000e+00   -9.255959e+61
   7.998701e+01    7.998701e+01    1.812040e+02    1.812114e+02    1.682821e+02    1.661348e+01    1.661295e+01    1.229251e+01    1.062548e-01    1.062549e-01    1.062643e-01    0.000000e+00    0.000000e+00    0.000000e+00    9.830608e-01    9.830608e-01    9.830608e-01    0.000000e+00    0.000000e+00    0.000000e+00    4.848137e-03    4.848137e-03    4.848137e-03    0.000000e+00    1.007782e+05    0.000000e+00    1.000000e+03    0.000000e+00   -9.255959e+61
   8.008698e+01    8.008698e+01    1.821382e+02    1.821458e+02    1.688425e+02    1.675280e+01    1.675225e+01    1.239076e+01    1.065320e-01    1.065320e-01    1.065416e-01    0.000000e+00    0.000000e+00    0.000000e+00    9.830608e-01    9.830608e-01    9.830608e-01    0.000000e+00    0.000000e+00    0.000000e+00    4.848137e-03    4.848137e-03    4.848137e-03    0.000000e+00    1.007907e+05    0.000000e+00    1.000000e+03    0.000000e+00   -9.255959e+61
   8.018701e+01    8.018701e+01    1.830913e+02    1.830989e+02    1.694149e+02    1.689246e+01    1.689189e+01    1.248909e+01    1.068108e-01    1.068109e-01    1.068206e-01    0.000000e+00    0.000000e+00    0.000000e+00    9.830608e-01    9.830608e-01    9.830608e-01    0.000000e+00    0.000000e+00    0.000000e+00    4.848137e-03    4.848137e-03    4.848137e-03    0.000000e+00    1.008032e+05    0.000000e+00    1.000000e+03    0.000000e+00   -9.255959e+61
   8.028698e+01    8.028698e+01    1.840620e+02    1.840697e+02    1.699987e+02    1.703204e+01    1.703146e+01    1.258734e+01    1.070909e-01    1.070909e-01    1.071008e-01    0.000000e+00    0.000000e+00    0.000000e+00    9.830608e-01    9.830608e-01    9.830608e-01    0.000000e+00    0.000000e+00    0.000000e+00    4.848137e-03    4.848137e-03    4.848137e-03    0.000000e+00    1.008159e+05    0.000000e+00    1.000000e+03    0.000000e+00   -9.255959e+61
   8.038701e+01    8.038701e+01    1.850516e+02    1.850593e+02    1.705946e+02    1.717207e+01    1.717148e+01    1.268566e+01    1.073726e-01    1.073726e-01    1.073826e-01    0.000000e+00    0.000000e+00    0.000000e+00    9.830608e-01    9.830608e-01    9.830608e-01    0.000000e+00    0.000000e+00    0.000000e+00    4.848137e-03    4.848137e-03    4.848137e-03    0.000000e+00    1.008286e+05    0.000000e+00    1.000000e+03    0.000000e+00   -9.255959e+61
   8.048698e+01    8.048698e+01    1.860591e+02    1.860669e+02    1.712021e+02    1.731204e+01    1.731144e+01    1.278392e+01    1.076555e-01    1.076556e-01    1.076658e-01    0.000000e+00    0.000000e+00    0.000000e+00    9.830608e-01    9.830608e-01    9.830608e-01    0.000000e+00    0.000000e+00    0.000000e+00    4.848137e-03    4.848137e-03    4.848137e-03    0.000000e+00    1.008415e+05    0.000000e+00    1.000000e+03    0.000000e+00   -9.255959e+61
   8.058701e+01    8.058701e+01    1.870857e+02    1.870937e+02    1.718220e+02    1.745214e+01    1.745152e+01    1.288225e+01    1.079401e-01    1.079402e-01    1.079505e-01    0.000000e+00    0.000000e+00    0.000000e+00    9.830608e-01    9.830608e-01    9.830608e-01    0.000000e+00    0.000000e+00    0.000000e+00    4.848137e-03    4.848137e-03    4.848137e-03    0.000000e+00    1.008544e+05    0.000000e+00    1.000000e+03    0.000000e+00   -9.255959e+61
   8.068698e+01    8.068698e+01    1.881304e+02    1.881383e+02    1.724536e+02    1.759244e+01    1.759181e+01    1.298051e+01    1.082260e-01    1.082261e-01    1.082365e-01    0.000000e+00    0.000000e+00    0.000000e+00    9.830608e-01    9.830608e-01    9.830608e-01    0.000000e+00    0.000000e+00    0.000000e+00    4.848137e-03    4.848137e-03    4.848137e-03    0.000000e+00    1.008674e+05    0.000000e+00    1.000000e+03    0.000000e+00   -9.255959e+61
   8.078701e+01    8.078701e+01    1.891944e+02    1.892025e+02    1.730978e+02    1.773289e+01    1.773223e+01    1.307884e+01    1.085134e-01    1.085135e-01    1.085241e-01    0.000000e+00    0.000000e+00    0.000000e+00    9.830608e-01    9.830608e-01    9.830608e-01    0.000000e+00    0.000000e+00    0.000000e+00    4.848137e-03    4.848137e-03    4.848137e-03    0.000000e+00    1.008806e+05    0.000000e+00    1.000000e+03    0.000000e+00   -9.255959e+61
   8.088698e+01    8.088698e+01    1.902766e+02    1.902847e+02    1.737538e+02    1.787328e+01    1.787262e+01    1.317711e+01    1.088021e-01    1.088021e-01    1.088129e-01    0.000000e+00    0.000000e+00    0.000000e+00    9.830608e-01    9.830608e-01    9.830608e-01    0.000000e+00    0.000000e+00    0.000000e+00    4.848137e-03    4.848137e-03    4.848137e-03    0.000000e+00    1.008938e+05    0.000000e+00    1.000000e+03    0.000000e+00   -9.255959e+61
   8.098701e+01    8.098701e+01    1.913782e+02    1.913865e+02    1.744226e+02    1.801406e+01    1.801338e+01    1.327543e+01    1.090923e-01    1.090924e-01    1.091032e-01    0.000000e+00    0.000000e+00    0.000000e+00    9.830608e-01    9.830608e-01    9.830608e-01    0.000000e+00    0.000000e+00    0.000000e+00    4.848137e-03    4.848137e-03    4.848137e-03    0.000000e+00    1.009071e+05    0.000000e+00    1.000000e+03    0.000000e+00   -9.255959e+61
   8.108698e+01    8.108698e+01    1.924981e+02    1.925064e+02    1.751034e+02    1.815486e+01    1.815416e+01    1.337370e+01    1.093837e-01    1.093838e-01    1.093948e-01    0.000000e+00    0.000000e+00    0.000000e+00    9.830608e-01    9.830608e-01    9.830608e-01    0.000000e+00    0.000000e+00    0.000000e+00    4.848137e-03    4.848137e-03    4.848137e-03    0.000000e+00    1.009206e+05    0.000000e+00    1.000000e+03    0.000000e+00   -9.255959e+61
   8.118701e+01    8.118701e+01    1.936378e+02    1.936462e+02    1.757972e+02    1.829598e+01    1.829527e+01    1.347203e+01    1.096766e-01    1.096767e-01    1.096879e-01    0.000000e+00    0.000000e+00    0.000000e+00    9.830608e-01    9.830608e-01    9.830608e-01    0.000000e+00    0.000000e+00    0.000000e+00    4.848137e-03    4.848137e-03    4.848137e-03    0.000000e+00    1.009341e+05    0.000000e+00    1.000000e+03    0.000000e+00   -9.255959e+61
   8.128698e+01    8.128698e+01    1.947957e+02    1.948042e+02    1.765031e+02    1.843717e+01    1.843644e+01    1.357030e+01    1.099708e-01    1.099709e-01    1.099822e-01    0.000000e+00    0.000000e+00    0.000000e+00    9.830608e-01    9.830608e-01    9.830608e-01    0.000000e+00    0.000000e+00    0.000000e+00    4.848137e-03    4.848137e-03    4.848137e-03    0.000000e+00    1.009477e+05    0.000000e+00    1.000000e+03    0.000000e+00   -9.255959e+61
   8.138701e+01    8.138701e+01    1.959735e+02    1.959820e+02    1.772220e+02    1.857850e+01    1.857775e+01    1.366862e+01    1.102664e-01    1.102665e-01    1.102780e-01    0.000000e+00    0.000000e+00    0.000000e+00    9.830608e-01    9.830608e-01    9.830608e-01    0.000000e+00    0.000000e+00    0.000000e+00    4.848137e-03    4.848137e-03    4.848137e-03    0.000000e+00    1.009614e+05    0.000000e+00    1.000000e+03    0.000000e+00   -9.255959e+61
   8.148698e+01    8.148698e+01    1.971698e+02    1.971784e+02    1.779533e+02    1.872006e+01    1.871930e+01    1.376689e+01    1.105632e-01    1.105633e-01    1.105749e-01    0.000000e+00    0.000000e+00    0.000000e+00    9.830608e-01    9.830608e-01    9.830608e-01    0.000000e+00    0.000000e+00    0.000000e+00    4.848137e-03    4.848137e-03    4.848137e-03    0.000000e+00    1.009752e+05    0.000000e+00    1.000000e+03    0.000000e+00   -9.255959e+61
   8.158701e+01    8.158701e+01    1.983861e+02    1.983947e+02    1.786978e+02    1.886189e+01    1.886111e+01    1.386521e+01    1.108615e-01    1.108616e-01    1.108734e-01    0.000000e+00    0.000000e+00    0.000000e+00    9.830608e-01    9.830608e-01    9.830608e-01    0.000000e+00    0.000000e+00    0.000000e+00    4.848137e-03    4.848137e-03    4.848137e-03    0.000000e+00    1.009892e+05    0.000000e+00    1.000000e+03    0.000000e+00   -9.255959e+61
   8.168698e+01    8.168698e+01    1.996209e+02    1.996296e+02    1.794547e+02    1.900376e+01    1.900296e+01    1.396349e+01    1.111610e-01    1.111611e-01    1.111730e-01    0.000000e+00    0.000000e+00    0.000000e+00    9.830608e-01    9.830608e-01    9.830608e-01    0.000000e+00    0.000000e+00    0.000000e+00    4.848137e-03    4.848137e-03    4.848137e-03    0.000000e+00    1.010032e+05    0.000000e+00    1.000000e+03    0.000000e+00   -9.255959e+61
   8.178701e+01    8.178701e+01    2.008759e+02    2.008846e+02    1.802251e+02    1.914607e+01    1.914525e+01    1.406182e+01    1.114619e-01    1.114620e-01    1.114741e-01    0.000000e+00    0.000000e+00    0.000000e+00    9.830608e-01    9.830608e-01    9.830608e-01    0.000000e+00    0.000000e+00    0.000000e+00    4.848137e-03    4.848137e-03    4.848137e-03    0.000000e+00    1.010173e+05    0.000000e+00    1.000000e+03    0.000000e+00   -9.255959e+61
   8.188698e+01    8.188698e+01    2.021495e+02    2.021583e+02    1.810079e+02    1.928820e+01    1.928736e+01    1.416009e+01    1.117639e-01    1.117640e-01    1.117763e-01    0.000000e+00    0.000000e+00    0.000000e+00    9.830608e-01    9.830608e-01    9.830608e-01    0.000000e+00    0.000000e+00    0.000000e+00    4.848137e-03    4.848137e-03    4.848137e-03    0.000000e+00    1.010315e+05    0.000000e+00    1.000000e+03    0.000000e+00   -9.255959e+61
   8.198701e+01    8.198701e+01    2.034432e+02    2.034522e+02    1.818043e+02    1.943071e+01    1.942985e+01    1.425842e+01    1.120674e-01    1.120675e-01    1.120799e-01    0.000000e+00    0.000000e+00    0.000000e+00    9.830608e-01    9.830608e-01    9.830608e-01    0.000000e+00    0.000000e+00    0.000000e+00    4.848137e-03    4.848137e-03    4.848137e-03    0.000000e+00    1.010458e+05    0.000000e+00    1.000000e+03    0.000000e+00   -9.255959e+61
   8.208698e+01    8.208698e+01    2.047557e+02    2.047647e+02    1.826133e+02    1.957329e+01    1.957241e+01    1.435669e+01    1.123720e-01    1.123721e-01    1.123847e-01    0.000000e+00    0.000000e+00    0.000000e+00    9.830608e-01    9.830608e-01    9.830608e-01    0.000000e+00    0.000000e+00    0.000000e+00    4.848137e-03    4.848137e-03    4.848137e-03    0.000000e+00    1.010602e+05    0.000000e+00    1.000000e+03    0.000000e+00   -9.255959e+61
   8.218701e+01    8.218701e+01    2.060885e+02    2.060976e+02    1.834360e+02    1.971601e+01    1.971512e+01    1.445503e+01    1.126780e-01    1.126782e-01    1.126909e-01    0.000000e+00    0.000000e+00    0.000000e+00    9.830608e-01    9.830608e-01    9.830608e-01    0.000000e+00    0.000000e+00    0.000000e+00    4.848137e-03    4.848137e-03    4.848137e-03    0.000000e+00    1.010747e+05    0.000000e+00    1.000000e+03    0.000000e+00   -9.255959e+61
   8.228698e+01    8.228698e+01    2.074400e+02    2.074492e+02    1.842714e+02    1.985898e+01    1.985806e+01    1.455330e+01    1.129851e-01    1.129852e-01    1.129981e-01    0.000000e+00    0.000000e+00    0.000000e+00    9.830608e-01    9.830608e-01    9.830608e-01    0.000000e+00    0.000000e+00    0.000000e+00    4.848137e-03    4.848137e-03    4.848137e-03    0.000000e+00    1.010893e+05    0.000000e+00    1.000000e+03    0.000000e+00   -9.255959e+61
   8.238701e+01    8.238701e+01    2.088119e+02    2.088211e+02    1.851205e+02    2.000219e+01    2.000125e+01    1.465163e+01    1.132936e-01    1.132938e-01    1.133068e-01    0.000000e+00    0.000000e+00    0.000000e+00    9.830608e-01    9.830608e-01    9.830608e-01    0.000000e+00    0.000000e+00    0.000000e+00    4.848137e-03    4.848137e-03    4.848137e-03    0.000000e+00    1.011040e+05    0.000000e+00    1.000000e+03    0.000000e+00   -9.255959e+61
   8.248698e+01    8.248698e+01    2.102025e+02    2.102119e+02    1.859825e+02    2.014553e+01    2.014457e+01    1.474991e+01    1.136032e-01    1.136033e-01    1.136165e-01    0.000000e+00    0.000000e+00    0.000000e+00    9.830608e-01    9.830608e-01    9.830608e-01    0.000000e+00    0.000000e+00    0.000000e+00    4.848137e-03    4.848137e-03    4.848137e-03    0.000000e+00    1.011187e+05    0.000000e+00    1.000000e+03    0.000000e+00   -9.255959e+61
   8.258701e+01    8.258701e+01    2.116137e+02    2.116230e+02    1.868584e+02    2.028909e+01    2.028811e+01    1.484824e+01    1.139142e-01    1.139143e-01    1.139277e-01    0.000000e+00    0.000000e+00    0.000000e+00    9.830608e-01    9.830608e-01    9.830608e-01    0.000000e+00    0.000000e+00    0.000000e+00    4.848137e-03    4.848137e-03    4.848137e-03    0.000000e+00    1.011336e+05    0.000000e+00    1.000000e+03    0.000000e+00   -9.255959e+61
   8.268698e+01    8.268698e+01    2.130436e+02    2.130530e+02    1.877471e+02    2.043264e+01    2.043163e+01    1.494651e+01    1.142261e-01    1.142263e-01    1.142398e-01    0.000000e+00    0.000000e+00    0.000000e+00    9.830608e-01    9.830608e-01    9.830608e-01    0.000000e+00    0.000000e+00    0.000000e+00    4.848137e-03    4.848137e-03    4.848137e-03    0.000000e+00    1.011486e+05    0.000000e+00    1.000000e+03    0.000000e+00   -9.255959e+61
   8.278701e+01    8.278701e+01    2.144942e+02    2.145037e+02    1.886499e+02    2.057657e+01    2.057555e+01    1.504485e+01    1.145395e-01    1.145397e-01    1.145534e-01    0.000000e+00    0.000000e+00    0.000000e+00    9.830608e-01    9.830608e-01    9.830608e-01    0.000000e+00    0.000000e+00    0.000000e+00    4.848137e-03    4.848137e-03    4.848137e-03    0.000000e+00    1.011637e+05    0.000000e+00    1.000000e+03    0.000000e+00   -9.255959e+61
   8.288698e+01    8.288698e+01    2.159635e+02    2.159731e+02    1.895656e+02    2.072066e+01    2.071960e+01    1.514313e+01    1.148539e-01    1.148540e-01    1.148679e-01    0.000000e+00    0.000000e+00    0.000000e+00    9.830608e-01    9.830608e-01    9.830608e-01    0.000000e+00    0.000000e+00    0.000000e+00    4.848137e-03    4.848137e-03    4.848137e-03    0.000000e+00    1.011789e+05    0.000000e+00    1.000000e+03    0.000000e+00   -9.255959e+61
   8.298701e+01    8.298701e+01    2.174533e+02    2.174630e+02    1.904953e+02    2.086492e+01    2.086384e+01    1.524147e+01    1.151696e-01    1.151698e-01    1.151838e-01    0.000000e+00    0.000000e+00    0.000000e+00    9.830608e-01    9.830608e-01    9.830608e-01    0.000000e+00    0.000000e+00    0.000000e+00    4.848137e-03    4.848137e-03    4.848137e-03    0.000000e+00    1.011941e+05    0.000000e+00    1.000000e+03    0.000000e+00   -9.255959e+61
   8.308698e+01    8.308698e+01    2.189620e+02    2.189717e+02    1.914381e+02    2.100946e+01    2.100836e+01    1.533975e+01    1.154863e-01    1.154865e-01    1.155007e-01    0.000000e+00    0.000000e+00    0.000000e+00    9.830608e-01    9.830608e-01    9.830608e-01    0.000000e+00    0.000000e+00    0.000000e+00    4.848137e-03    4.848137e-03    4.848137e-03    0.000000e+00    1.012095e+05    0.000000e+00    1.000000e+03    0.000000e+00   -9.255959e+61
   8.318701e+01    8.318701e+01    2.204915e+02    2.205012e+02    1.923951e+02    2.115405e+01    2.115293e+01    1.543810e+01    1.158044e-01    1.158046e-01    1.158190e-01    0.000000e+00    0.000000e+00    0.000000e+00    9.830608e-01    9.830608e-01    9.830608e-01    0.000000e+00    0.000000e+00    0.000000e+00    4.848137e-03    4.848137e-03    4.848137e-03    0.000000e+00    1.012250e+05    0.000000e+00    1.000000e+03    0.000000e+00   -9.255959e+61
   8.328698e+01    8.328698e+01    2.220396e+02    2.220495e+02    1.933651e+02    2.129886e+01    2.129771e+01    1.553638e+01    1.161235e-01    1.161236e-01    1.161382e-01    0.000000e+00    0.000000e+00    0.000000e+00    9.830608e-01    9.830608e-01    9.830608e-01    0.000000e+00    0.000000e+00    0.000000e+00    4.848137e-03    4.848137e-03    4.848137e-03    0.000000e+00    1.012405e+05    0.000000e+00    1.000000e+03    0.000000e+00   -9.255959e+61
   8.338701e+01    8.338701e+01    2.236085e+02    2.236184e+02    1.943494e+02    2.144390e+01    2.144273e+01    1.563472e+01    1.164438e-01    1.164440e-01    1.164587e-01    0.000000e+00    0.000000e+00    0.000000e+00    9.830608e-01    9.830608e-01    9.830608e-01    0.000000e+00    0.000000e+00    0.000000e+00    4.848137e-03    4.848137e-03    4.848137e-03    0.000000e+00    1.012562e+05    0.000000e+00    1.000000e+03    0.000000e+00   -9.255959e+61
   8.348698e+01    8.348698e+01    2.251961e+02    2.252061e+02    1.953467e+02    2.158909e+01    2.158789e+01    1.573300e+01    1.167651e-01    1.167653e-01    1.167802e-01    0.000000e+00    0.000000e+00    0.000000e+00    9.830608e-01    9.830608e-01    9.830608e-01    0.000000e+00    0.000000e+00    0.000000e+00    4.848137e-03    4.848137e-03    4.848137e-03    0.000000e+00    1.012719e+05    0.000000e+00    1.000000e+03    0.000000e+00   -9.255959e+61
   8.358701e+01    8.358701e+01    2.268045e+02    2.268146e+02    1.963584e+02    2.173455e+01    2.173333e+01    1.583134e+01    1.170877e-01    1.170879e-01    1.171030e-01    0.000000e+00    0.000000e+00    0.000000e+00    9.830608e-01    9.830608e-01    9.830608e-01    0.000000e+00    0.000000e+00    0.000000e+00    4.848137e-03    4.848137e-03    4.848137e-03    0.000000e+00    1.012878e+05    0.000000e+00    1.000000e+03    0.000000e+00   -9.255959e+61
   8.368698e+01    8.368698e+01    2.284316e+02    2.284416e+02    1.973832e+02    2.188014e+01    2.187889e+01    1.592962e+01    1.174113e-01    1.174114e-01    1.174267e-01    0.000000e+00    0.000000e+00    0.000000e+00    9.830608e-01    9.830608e-01    9.830608e-01    0.000000e+00    0.000000e+00    0.000000e+00    4.848137e-03    4.848137e-03    4.848137e-03    0.000000e+00    1.013037e+05    0.000000e+00    1.000000e+03    0.000000e+00   -9.255959e+61
   8.378701e+01    8.378701e+01    2.300796e+02    2.300897e+02    1.984225e+02    2.202601e+01    2.202474e+01    1.602796e+01    1.177361e-01    1.177363e-01    1.177517e-01    0.000000e+00    0.000000e+00    0.000000e+00    9.830608e-01    9.830608e-01    9.830608e-01    0.000000e+00    0.000000e+00    0.000000e+00    4.848137e-03    4.848137e-03    4.848137e-03    0.000000e+00    1.013198e+05    0.000000e+00    1.000000e+03    0.000000e+00   -9.255959e+61
   8.388698e+01    8.388698e+01    2.317462e+02    2.317564e+02    1.994748e+02    2.217195e+01    2.217066e+01    1.612625e+01    1.180619e-01    1.180620e-01    1.180777e-01    0.000000e+00    0.000000e+00    0.000000e+00    9.830608e-01    9.830608e-01    9.830608e-01    0.000000e+00    0.000000e+00    0.000000e+00    4.848137e-03    4.848137e-03    4.848137e-03    0.000000e+00    1.013359e+05    0.000000e+00    1.000000e+03    0.000000e+00   -9.255959e+61
   8.398701e+01    8.398701e+01    2.334337e+02    2.334439e+02    2.005416e+02    2.231842e+01    2.231709e+01    1.622459e+01    1.183889e-01    1.183890e-01    1.184049e-01    0.000000e+00    0.000000e+00    0.000000e+00    9.830608e-01    9.830608e-01    9.830608e-01    0.000000e+00    0.000000e+00    0.000000e+00    4.848137e-03    4.848137e-03    4.848137e-03    0.000000e+00    1.013521e+05    0.000000e+00    1.000000e+03    0.000000e+00   -9.255959e+61
   8.408698e+01    8.408698e+01    2.351398e+02    2.351501e+02    2.016216e+02    2.246462e+01    2.246327e+01    1.632287e+01    1.187168e-01    1.187169e-01    1.187329e-01    0.000000e+00    0.000000e+00    0.000000e+00    9.830608e-01    9.830608e-01    9.830608e-01    0.000000e+00    0.000000e+00    0.000000e+00    4.848137e-03    4.848137e-03    4.848137e-03    0.000000e+00    1.013684e+05    0.000000e+00    1.000000e+03    0.000000e+00   -9.255959e+61
   8.418701e+01    8.418701e+01    2.368668e+02    2.368772e+02    2.027161e+02    2.261127e+01    2.260989e+01    1.642123e+01    1.190460e-01    1.190461e-01    1.190623e-01    0.000000e+00    0.000000e+00    0.000000e+00    9.830608e-01    9.830608e-01    9.830608e-01    0.000000e+00    0.000000e+00    0.000000e+00    4.848137e-03    4.848137e-03    4.848137e-03    0.000000e+00    1.013849e+05    0.000000e+00    1.000000e+03    0.000000e+00   -9.255959e+61
   8.428698e+01    8.428698e+01    2.386124e+02    2.386229e+02    2.038238e+02    2.275794e+01    2.275653e+01    1.651951e+01    1.193760e-01    1.193761e-01    1.193925e-01    0.000000e+00    0.000000e+00    0.000000e+00    9.830608e-01    9.830608e-01    9.830608e-01    0.000000e+00    0.000000e+00    0.000000e+00    4.848137e-03    4.848137e-03    4.848137e-03    0.000000e+00    1.014014e+05    0.000000e+00    1.000000e+03    0.000000e+00   -9.255959e+61
   8.438701e+01    8.438701e+01    2.403788e+02    2.403893e+02    2.049460e+02    2.290496e+01    2.290353e+01    1.661786e+01    1.197072e-01    1.197074e-01    1.197240e-01    0.000000e+00    0.000000e+00    0.000000e+00    9.830608e-01    9.830608e-01    9.830608e-01    0.000000e+00    0.000000e+00    0.000000e+00    4.848137e-03    4.848137e-03    4.848137e-03    0.000000e+00    1.014180e+05    0.000000e+00    1.000000e+03    0.000000e+00   -9.255959e+61
   8.448698e+01    8.448698e+01    2.421638e+02    2.421743e+02    2.060813e+02    2.305219e+01    2.305073e+01    1.671614e+01    1.200393e-01    1.200395e-01    1.200563e-01    0.000000e+00    0.000000e+00    0.000000e+00    9.830608e-01    9.830608e-01    9.830608e-01    0.000000e+00    0.000000e+00    0.000000e+00    4.848137e-03    4.848137e-03    4.848137e-03    0.000000e+00    1.014347e+05    0.000000e+00    1.000000e+03    0.000000e+00   -9.255959e+61
   8.458701e+01    8.458701e+01    2.439696e+02    2.439801e+02    2.072313e+02    2.319971e+01    2.319822e+01    1.681449e+01    1.203727e-01    1.203729e-01    1.203898e-01    0.000000e+00    0.000000e+00    0.000000e+00    9.830608e-01    9.830608e-01    9.830608e-01    0.000000e+00    0.000000e+00    0.000000e+00    4.848137e-03    4.848137e-03    4.848137e-03    0.000000e+00    1.014515e+05    0.000000e+00    1.000000e+03    0.000000e+00   -9.255959e+61
   8.468698e+01    8.468698e+01    2.457940e+02    2.458046e+02    2.083944e+02    2.334719e+01    2.334567e+01    1.691277e+01    1.207069e-01    1.207070e-01    1.207242e-01    0.000000e+00    0.000000e+00    0.000000e+00    9.830608e-01    9.830608e-01    9.830608e-01    0.000000e+00    0.000000e+00    0.000000e+00    4.848137e-03    4.848137e-03    4.848137e-03    0.000000e+00    1.014684e+05    0.000000e+00    1.000000e+03    0.000000e+00   -9.255959e+61
   8.478701e+01    8.478701e+01    2.476394e+02    2.476500e+02    2.095722e+02    2.349505e+01    2.349350e+01    1.701113e+01    1.210423e-01    1.210424e-01    1.210598e-01    0.000000e+00    0.000000e+00    0.000000e+00    9.830608e-01    9.830608e-01    9.830608e-01    0.000000e+00    0.000000e+00    0.000000e+00    4.848137e-03    4.848137e-03    4.848137e-03    0.000000e+00    1.014854e+05    0.000000e+00    1.000000e+03    0.000000e+00   -9.255959e+61
   8.488698e+01    8.488698e+01    2.495031e+02    2.495138e+02    2.107632e+02    2.364291e+01    2.364134e+01    1.710942e+01    1.213785e-01    1.213786e-01    1.213961e-01    0.000000e+00    0.000000e+00    0.000000e+00    9.830608e-01    9.830608e-01    9.830608e-01    0.000000e+00    0.000000e+00    0.000000e+00    4.848137e-03    4.848137e-03    4.848137e-03    0.000000e+00    1.015025e+05    0.000000e+00    1.000000e+03    0.000000e+00   -9.255959e+61
   8.498701e+01    8.498701e+01    2.513876e+02    2.513983e+02    2.119687e+02    2.379115e+01    2.378955e+01    1.720777e+01    1.217158e-01    1.217160e-01    1.217337e-01    0.000000e+00    0.000000e+00    0.000000e+00    9.830608e-01    9.830608e-01    9.830608e-01    0.000000e+00    0.000000e+00    0.000000e+00    4.848137e-03    4.848137e-03    4.848137e-03    0.000000e+00    1.015197e+05    0.000000e+00    1.000000e+03    0.000000e+00   -9.255959e+61
   8.508698e+01    8.508698e+01    2.532906e+02    2.533014e+02    2.131874e+02    2.393941e+01    2.393777e+01    1.730606e+01    1.220540e-01    1.220542e-01    1.220721e-01    0.000000e+00    0.000000e+00    0.000000e+00    9.830608e-01    9.830608e-01    9.830608e-01    0.000000e+00    0.000000e+00    0.000000e+00    4.848137e-03    4.848137e-03    4.848137e-03    0.000000e+00    1.015370e+05    0.000000e+00    1.000000e+03    0.000000e+00   -9.255959e+61
   8.518701e+01    8.518701e+01    2.552145e+02    2.552253e+02    2.144209e+02    2.408789e+01    2.408622e+01    1.740441e+01    1.223934e-01    1.223936e-01    1.224117e-01    0.000000e+00    0.000000e+00    0.000000e+00    9.830608e-01    9.830608e-01    9.830608e-01    0.000000e+00    0.000000e+00    0.000000e+00    4.848137e-03    4.848137e-03    4.848137e-03    0.000000e+00    1.015544e+05    0.000000e+00    1.000000e+03    0.000000e+00   -9.255959e+61
   8.528698e+01    8.528698e+01    2.571566e+02    2.571675e+02    2.156674e+02    2.423655e+01    2.423485e+01    1.750270e+01    1.227336e-01    1.227337e-01    1.227520e-01    0.000000e+00    0.000000e+00    0.000000e+00    9.830608e-01    9.830608e-01    9.830608e-01    0.000000e+00    0.000000e+00    0.000000e+00    4.848137e-03    4.848137e-03    4.848137e-03    0.000000e+00    1.015718e+05    0.000000e+00    1.000000e+03    0.000000e+00   -9.255959e+61
   8.538701e+01    8.538701e+01    2.579673e+02    1.743612e+02    2.082734e+02    2.421606e+01    1.114238e+01    1.640170e+01    9.984659e-02    1.227482e-01    1.230910e-01    4.135843e-02   -3.885254e-03   -2.554292e-02    7.460862e-01    9.808558e-01    9.244121e-01   -1.369185e-05   -2.808628e-05    2.768022e-07    4.845914e-03    4.662193e-03    4.848117e-03   -1.622455e+03    2.442829e+02   -5.369586e+02    2.217782e+01   -2.554291e-02   -9.255959e+61
   8.548698e+01    8.548698e+01    4.251642e+01    4.704495e+01    9.497364e+01    8.122627e-01    8.856252e-01    1.872598e+00    9.295604e-02    9.251051e-02    1.234282e-01    8.026103e-02   -1.984607e-01   -6.367265e-02    6.798771e-01    6.814248e-01    1.045223e-01   -4.771420e-04    6.690784e-04   -9.369540e-06    4.560133e-03    4.576362e-03    4.848076e-03   -1.704341e+03    4.521040e+01   -5.307441e+02    8.908414e-01   -6.367260e-02   -9.255959e+61
   8.558701e+01    8.558701e+01    4.251529e+01    4.704962e+01    9.497599e+01    8.151437e-01    8.961298e-01    1.883219e+00    9.327790e-02    9.282973e-02    1.237716e-01    8.026103e-02   -1.984607e-01   -6.367265e-02    6.798771e-01    6.814248e-01    1.045223e-01   -4.771420e-04    6.690784e-04   -9.369540e-06    4.560133e-03    4.576362e-03    4.848076e-03   -1.757431e+03    4.521060e+01   -5.307441e+02    8.935890e-01   -6.367260e-02   -9.255959e+61
   8.568698e+01    8.568698e+01    4.251406e+01    4.705431e+01    9.497874e+01    8.200155e-01    9.084924e-01    1.893855e+00    9.360069e-02    9.314990e-02    1.241157e-01    8.026103e-02   -1.984607e-01   -6.367265e-02    6.798771e-01    6.814248e-01    1.045223e-01   -4.771420e-04    6.690784e-04   -9.369540e-06    4.560133e-03    4.576362e-03    4.848076e-03   -1.810488e+03    4.521098e+01   -5.307441e+02    8.963248e-01   -6.367260e-02   -9.255959e+61
   8.578701e+01    8.578701e+01    4.251276e+01    4.705905e+01    9.498189e+01    8.269055e-01    9.227091e-01    1.904497e+00    9.392484e-02    9.347142e-02    1.244609e-01    8.026103e-02   -1.984607e-01   -6.367265e-02    6.798771e-01    6.814248e-01    1.045223e-01   -4.771420e-04    6.690784e-04   -9.369540e-06    4.560133e-03    4.576362e-03    4.848076e-03   -1.863582e+03    4.521153e+01   -5.307441e+02    8.990560e-01   -6.367260e-02   -9.255959e+61
   8.588698e+01    8.588698e+01    4.251138e+01    4.706385e+01    9.498544e+01    8.358618e-01    9.388292e-01    1.915163e+00    9.424987e-02    9.379383e-02    1.248069e-01    8.026103e-02   -1.984607e-01   -6.367265e-02    6.798771e-01    6.814248e-01    1.045223e-01   -4.771420e-04    6.690784e-04   -9.369540e-06    4.560133e-03    4.576362e-03    4.848076e-03   -1.916639e+03    4.521226e+01   -5.307441e+02    9.017753e-01   -6.367260e-02   -9.255959e+61
   8.598701e+01    8.598701e+01    4.250991e+01    4.706868e+01    9.498941e+01    8.468657e-01    9.567517e-01    1.925830e+00    9.457620e-02    9.411754e-02    1.251540e-01    8.026103e-02   -1.984607e-01   -6.367265e-02    6.798771e-01    6.814248e-01    1.045223e-01   -4.771420e-04    6.690784e-04   -9.369540e-06    4.560133e-03    4.576362e-03    4.848076e-03   -1.969729e+03    4.521318e+01   -5.307441e+02    9.044896e-01   -6.367260e-02   -9.255959e+61
   8.608698e+01    8.608698e+01    4.250837e+01    4.707356e+01    9.499379e+01    8.598595e-01    9.763746e-01    1.936489e+00    9.490342e-02    9.444214e-02    1.255017e-01    8.026103e-02   -1.984607e-01   -6.367265e-02    6.798771e-01    6.814248e-01    1.045223e-01   -4.771420e-04    6.690784e-04   -9.369540e-06    4.560133e-03    4.576362e-03    4.848076e-03   -2.022787e+03    4.521427e+01   -5.307441e+02    9.071926e-01   -6.367260e-02   -9.255959e+61
   8.618701e+01    8.618701e+01    4.250676e+01    4.707851e+01    9.499859e+01    8.748809e-01    9.977549e-01    1.947153e+00    9.523193e-02    9.476804e-02    1.258507e-01    8.026103e-02   -1.984607e-01   -6.367265e-02    6.798771e-01    6.814248e-01    1.045223e-01   -4.771420e-04    6.690784e-04   -9.369540e-06    4.560133e-03    4.576362e-03    4.848076e-03   -2.075880e+03    4.521554e+01   -5.307441e+02    9.098912e-01   -6.367260e-02   -9.255959e+61
   8.628698e+01    8.628698e+01    4.250508e+01    4.708353e+01    9.500381e+01    8.919144e-01    1.020875e+00    1.957853e+00    9.556127e-02    9.509479e-02    1.262003e-01    8.026103e-02   -1.984607e-01   -6.367265e-02    6.798771e-01    6.814248e-01    1.045223e-01   -4.771420e-04    6.690784e-04   -9.369540e-06    4.560133e-03    4.576362e-03    4.848076e-03   -2.128938e+03    4.521700e+01   -5.307441e+02    9.125781e-01   -6.367260e-02   -9.255959e+61
   8.638701e+01    8.638701e+01    9.063212e+00    7.801765e+00    2.543591e+01    2.052685e-01    2.636863e-01    4.893134e-01    9.025443e-02    7.459675e-02    1.264953e-01    1.447423e-01   -5.554837e-02   -8.435513e-02    6.736691e-01    6.505860e-01    3.222298e-02   -3.420339e-03    1.821228e-03   -1.481284e-04    2.442183e-03    4.056929e-03    4.842615e-03   -2.165421e+03    1.607314e+01   -5.306472e+02    2.983207e-01   -8.435512e-02   -9.255959e+61
   8.648698e+01    8.648698e+01    7.525110e+00    6.640447e+00    2.229351e+01    1.207761e-01    1.307874e-01    3.253612e-01    7.661407e-02    6.926599e-02    1.264027e-01    2.090825e-01    1.949251e-03   -9.657137e-02    6.529762e-01    6.420815e-01    2.740120e-02   -4.506187e-03    3.054437e-03   -3.023414e-04    1.663613e-03    2.659371e-03    4.831919e-03   -2.217826e+03    1.388703e+01   -5.304634e+02    2.217322e-01   -9.657133e-02   -9.255959e+61
   8.658701e+01    8.658701e+01    7.524912e+00    6.640713e+00    2.229310e+01    1.282470e-01    1.488334e-01    3.271498e-01    7.675040e-02    6.931541e-02    1.267499e-01    2.090825e-01    1.949251e-03   -9.657137e-02    6.529762e-01    6.420815e-01    2.740120e-02   -4.506187e-03    3.054437e-03   -3.023414e-04    1.663613e-03    2.659371e-03    4.831919e-03   -2.270888e+03    1.388675e+01   -5.304634e+02    2.325253e-01   -9.657133e-02   -9.255959e+61
   8.668698e+01    8.668698e+01    7.524733e+00    6.641003e+00    2.229273e+01    1.371924e-01    1.691616e-01    3.289644e-01    7.688736e-02    6.936516e-02    1.270978e-01    2.090825e-01    1.949251e-03   -9.657137e-02    6.529762e-01    6.420815e-01    2.740120e-02   -4.506187e-03    3.054437e-03   -3.023414e-04    1.663613e-03    2.659371e-03    4.831919e-03   -2.323917e+03    1.388650e+01   -5.304634e+02    2.428268e-01   -9.657133e-02   -9.255959e+61
   8.678701e+01    8.678701e+01    7.524577e+00    6.641328e+00    2.229241e+01    1.474038e-01    1.911527e-01    3.307803e-01    7.702513e-02    6.941528e-02    1.274467e-01    2.090825e-01    1.949251e-03   -9.657137e-02    6.529762e-01    6.420815e-01    2.740120e-02   -4.506187e-03    3.054437e-03   -3.023414e-04    1.663613e-03    2.659371e-03    4.831919e-03   -2.376983e+03    1.388629e+01   -5.304634e+02    2.527221e-01   -9.657133e-02   -9.255959e+61
   8.688698e+01    8.688698e+01    7.524450e+00    6.641701e+00    2.229213e+01    1.587033e-01    2.143630e-01    3.325869e-01    7.716354e-02    6.946571e-02    1.277962e-01    2.090825e-01    1.949251e-03   -9.657137e-02    6.529762e-01    6.420815e-01    2.740120e-02   -4.506187e-03    3.054437e-03   -3.023414e-04    1.663613e-03    2.659371e-03    4.831919e-03   -2.430012e+03    1.388613e+01   -5.304634e+02    2.622314e-01   -9.657133e-02   -9.255959e+61
   8.698701e+01    8.698701e+01    7.524358e+00    6.642150e+00    2.229190e+01    1.709827e-01    2.385800e-01    3.343485e-01    7.730274e-02    6.951652e-02    1.281467e-01    2.090825e-01    1.949251e-03   -9.657137e-02    6.529762e-01    6.420815e-01    2.740120e-02   -4.506187e-03    3.054437e-03   -3.023414e-04    1.663613e-03    2.659371e-03    4.831919e-03   -2.483074e+03    1.388602e+01   -5.304634e+02    2.714188e-01   -9.657133e-02   -9.255959e+61
   8.708698e+01    8.708698e+01    7.524309e+00    6.642693e+00    2.229173e+01    1.840280e-01    2.636344e-01    3.361531e-01    7.744257e-02    6.956765e-02    1.284978e-01    2.090825e-01    1.949251e-03   -9.657137e-02    6.529762e-01    6.420815e-01    2.740120e-02   -4.506187e-03    3.054437e-03   -3.023414e-04    1.663613e-03    2.659371e-03    4.831919e-03   -2.536103e+03    1.388596e+01   -5.304634e+02    2.802945e-01   -9.657133e-02   -9.255959e+61
   8.718701e+01    8.718701e+01    7.524311e+00    6.643358e+00    2.229159e+01    1.976648e-01    2.893000e-01    3.380178e-01    7.758322e-02    6.961914e-02    1.288501e-01    2.090825e-01    1.949251e-03   -9.657137e-02    6.529762e-01    6.420815e-01    2.740120e-02   -4.506187e-03    3.054437e-03   -3.023414e-04    1.663613e-03    2.659371e-03    4.831919e-03   -2.589169e+03    1.388595e+01   -5.304634e+02    2.889093e-01   -9.657133e-02   -9.255959e+61
   8.728698e+01    8.728698e+01    7.524374e+00    6.644175e+00    2.229151e+01    2.118373e-01    3.154282e-01    3.398859e-01    7.772447e-02    6.967095e-02    1.292028e-01    2.090825e-01    1.949251e-03   -9.657137e-02    6.529762e-01    6.420815e-01    2.740120e-02   -4.506187e-03    3.054437e-03   -3.023414e-04    1.663613e-03    2.659371e-03    4.831919e-03   -2.642198e+03    1.388600e+01   -5.304634e+02    2.972633e-01   -9.657133e-02   -9.255959e+61
   8.738701e+01    8.738701e+01    6.529073e+00    5.568822e+00    1.933892e+01    1.597644e-01    2.337254e-01    3.268238e-01    7.362840e-02    6.797541e-02    1.278868e-01    1.369221e-01   -2.022690e-02   -9.854320e-02    6.489772e-01    6.402377e-01    2.684022e-02   -4.013709e-03    1.742011e-03    3.626483e-06    1.319097e-03    2.086237e-03    4.798045e-03   -2.695068e+03    1.226633e+01   -5.304617e+02    2.034638e-01   -9.854317e-02   -9.255959e+61
   8.748698e+01    8.748698e+01    5.849720e+00    5.041580e+00    1.790524e+01    1.032059e-01    1.225746e-01    2.473154e-01    6.888665e-02    6.635583e-02    1.274070e-01    5.078070e-02   -2.051232e-02   -8.653511e-02    6.417769e-01    6.384889e-01    2.506612e-02   -3.970417e-03    5.197390e-04    1.549879e-04    8.660516e-04    1.464514e-03    4.782088e-03   -2.748669e+03    1.128149e+01   -5.305999e+02    1.787101e-01   -8.653510e-02   -9.255959e+61
   8.758701e+01    8.758701e+01    5.849648e+00    5.041855e+00    1.790502e+01    1.085591e-01    1.326445e-01    2.487213e-01    6.893224e-02    6.636644e-02    1.277538e-01    5.078070e-02   -2.051232e-02   -8.653511e-02    6.417769e-01    6.384889e-01    2.506612e-02   -3.970417e-03    5.197390e-04    1.549879e-04    8.660516e-04    1.464514e-03    4.782088e-03   -2.801745e+03    1.128134e+01   -5.305999e+02    1.919379e-01   -8.653510e-02   -9.255959e+61
   8.768698e+01    8.768698e+01    5.849597e+00    5.042166e+00    1.790484e+01    1.143487e-01    1.431731e-01    2.501300e-01    6.897815e-02    6.637716e-02    1.281013e-01    5.078070e-02   -2.051232e-02   -8.653511e-02    6.417769e-01    6.384889e-01    2.506612e-02   -3.970417e-03    5.197390e-04    1.549879e-04    8.660516e-04    1.464514e-03    4.782088e-03   -2.854788e+03    1.128122e+01   -5.305999e+02    2.042964e-01   -8.653510e-02   -9.255959e+61
   8.778701e+01    8.778701e+01    5.849571e+00    5.042521e+00    1.790468e+01    1.205268e-01    1.540997e-01    2.515687e-01    6.902446e-02    6.638800e-02    1.284497e-01    5.078070e-02   -2.051232e-02   -8.653511e-02    6.417769e-01    6.384889e-01    2.506612e-02   -3.970417e-03    5.197390e-04    1.549879e-04    8.660516e-04    1.464514e-03    4.782088e-03   -2.907867e+03    1.128113e+01   -5.305999e+02    2.159643e-01   -8.653510e-02   -9.255959e+61
   8.788698e+01    8.788698e+01    5.849572e+00    5.042929e+00    1.790456e+01    1.270749e-01    1.653855e-01    2.530258e-01    6.907109e-02    6.639894e-02    1.287987e-01    5.078070e-02   -2.051232e-02   -8.653511e-02    6.417769e-01    6.384889e-01    2.506612e-02   -3.970417e-03    5.197390e-04    1.549879e-04    8.660516e-04    1.464514e-03    4.782088e-03   -2.960910e+03    1.128109e+01   -5.305999e+02    2.270186e-01   -8.653510e-02   -9.255959e+61
   8.798701e+01    8.798701e+01    5.849605e+00    5.043400e+00    1.790448e+01    1.339150e-01    1.769468e-01    2.544694e-01    6.911810e-02    6.641000e-02    1.291486e-01    5.078070e-02   -2.051232e-02   -8.653511e-02    6.417769e-01    6.384889e-01    2.506612e-02   -3.970417e-03    5.197390e-04    1.549879e-04    8.660516e-04    1.464514e-03    4.782088e-03   -3.013986e+03    1.128109e+01   -5.305999e+02    2.375717e-01   -8.653510e-02   -9.255959e+61
   8.808698e+01    8.808698e+01    5.849675e+00    5.043946e+00    1.790443e+01    1.410366e-01    1.888194e-01    2.559218e-01    6.916545e-02    6.642117e-02    1.294991e-01    5.078070e-02   -2.051232e-02   -8.653511e-02    6.417769e-01    6.384889e-01    2.506612e-02   -3.970417e-03    5.197390e-04    1.549879e-04    8.660516e-04    1.464514e-03    4.782088e-03   -3.067029e+03    1.128113e+01   -5.305999e+02    2.476634e-01   -8.653510e-02   -9.255959e+61
   8.818701e+01    8.818701e+01    5.849785e+00    5.044580e+00    1.790442e+01    1.484120e-01    2.009170e-01    2.573857e-01    6.921318e-02    6.643245e-02    1.298506e-01    5.078070e-02   -2.051232e-02   -8.653511e-02    6.417769e-01    6.384889e-01    2.506612e-02   -3.970417e-03    5.197390e-04    1.549879e-04    8.660516e-04    1.464514e-03    4.782088e-03   -3.120108e+03    1.128123e+01   -5.305999e+02    2.573728e-01   -8.653510e-02   -9.255959e+61
   8.828698e+01    8.828698e+01    5.849942e+00    5.045314e+00    1.790444e+01    1.560183e-01    2.132535e-01    2.588597e-01    6.926124e-02    6.644384e-02    1.302026e-01    5.078070e-02   -2.051232e-02   -8.653511e-02    6.417769e-01    6.384889e-01    2.506612e-02   -3.970417e-03    5.197390e-04    1.549879e-04    8.660516e-04    1.464514e-03    4.782088e-03   -3.173151e+03    1.128139e+01   -5.305999e+02    2.667163e-01   -8.653510e-02   -9.255959e+61
   8.838701e+01    8.838701e+01    5.396144e+00    4.585514e+00    1.635781e+01    1.327367e-01    1.762239e-01    2.487592e-01    6.870163e-02    6.607960e-02    1.289122e-01    1.030155e-01   -9.665184e-02   -8.992234e-02    6.411664e-01    6.380450e-01    2.474665e-02   -3.221038e-03   -1.884593e-04    2.003792e-03    7.523861e-04    1.326795e-03    4.747900e-03   -3.225727e+03    1.039116e+01   -5.304960e+02    1.737847e-01   -8.992231e-02   -9.255959e+61
   8.848698e+01    8.848698e+01    4.993667e+00    4.268941e+00    1.549513e+01    9.439030e-02    1.110369e-01    2.130328e-01    6.737515e-02    6.561345e-02    1.286022e-01    1.620070e-01   -1.679976e-01   -7.637322e-02    6.386425e-01    6.374695e-01    2.382411e-02   -2.711210e-03   -4.115630e-04    2.976438e-03    5.578500e-04    1.122774e-03    4.733841e-03   -3.279498e+03    9.801361e+00   -5.306718e+02    1.597402e-01   -7.637322e-02   -9.255959e+61
   8.858701e+01    8.858701e+01    4.993666e+00    4.269248e+00    1.549505e+01    9.959918e-02    1.181371e-01    2.143615e-01    6.740125e-02    6.561362e-02    1.289534e-01    1.620070e-01   -1.679976e-01   -7.637322e-02    6.386425e-01    6.374695e-01    2.382411e-02   -2.711210e-03   -4.115630e-04    2.976438e-03    5.578500e-04    1.122774e-03    4.733841e-03   -3.332581e+03    9.801307e+00   -5.306718e+02    1.744126e-01   -7.637322e-02   -9.255959e+61
   8.868698e+01    8.868698e+01    4.993686e+00    4.269590e+00    1.549501e+01    1.054591e-01    1.257449e-01    2.157113e-01    6.742756e-02    6.561383e-02    1.293052e-01    1.620070e-01   -1.679976e-01   -7.637322e-02    6.386425e-01    6.374695e-01    2.382411e-02   -2.711210e-03   -4.115630e-04    2.976438e-03    5.578500e-04    1.122774e-03    4.733841e-03   -3.385631e+03    9.801281e+00   -5.306718e+02    1.879272e-01   -7.637322e-02   -9.255959e+61
   8.878701e+01    8.878701e+01    4.993729e+00    4.269973e+00    1.549499e+01    1.119287e-01    1.338028e-01    2.170981e-01    6.745411e-02    6.561407e-02    1.296579e-01    1.620070e-01   -1.679976e-01   -7.637322e-02    6.386425e-01    6.374695e-01    2.382411e-02   -2.711210e-03   -4.115630e-04    2.976438e-03    5.578500e-04    1.122774e-03    4.733841e-03   -3.438718e+03    9.801289e+00   -5.306718e+02    2.005498e-01   -7.637322e-02   -9.255959e+61
   8.888698e+01    8.888698e+01    4.993800e+00    4.270405e+00    1.549501e+01    1.188628e-01    1.422447e-01    2.184975e-01    6.748086e-02    6.561434e-02    1.300111e-01    1.620070e-01   -1.679976e-01   -7.637322e-02    6.386425e-01    6.374695e-01    2.382411e-02   -2.711210e-03   -4.115630e-04    2.976438e-03    5.578500e-04    1.122774e-03    4.733841e-03   -3.491768e+03    9.801335e+00   -5.306718e+02    2.124078e-01   -7.637322e-02   -9.255959e+61
   8.898701e+01    8.898701e+01    4.993903e+00    4.270894e+00    1.549505e+01    1.262801e-01    1.510471e-01    2.199345e-01    6.750785e-02    6.561466e-02    1.303652e-01    1.620070e-01   -1.679976e-01   -7.637322e-02    6.386425e-01    6.374695e-01    2.382411e-02   -2.711210e-03   -4.115630e-04    2.976438e-03    5.578500e-04    1.122774e-03    4.733841e-03   -3.544850e+03    9.801425e+00   -5.306718e+02    2.236513e-01   -7.637322e-02   -9.255959e+61
   8.908698e+01    8.908698e+01    4.994044e+00    4.271447e+00    1.549513e+01    1.340026e-01    1.601476e-01    2.213750e-01    6.753505e-02    6.561500e-02    1.307199e-01    1.620070e-01   -1.679976e-01   -7.637322e-02    6.386425e-01    6.374695e-01    2.382411e-02   -2.711210e-03   -4.115630e-04    2.976438e-03    5.578500e-04    1.122774e-03    4.733841e-03   -3.597900e+03    9.801564e+00   -5.306718e+02    2.343433e-01   -7.637322e-02   -9.255959e+61
   8.918701e+01    8.918701e+01    4.994228e+00    4.272076e+00    1.549524e+01    1.420480e-01    1.695481e-01    2.228319e-01    6.756248e-02    6.561537e-02    1.310755e-01    1.620070e-01   -1.679976e-01   -7.637322e-02    6.386425e-01    6.374695e-01    2.382411e-02   -2.711210e-03   -4.115630e-04    2.976438e-03    5.578500e-04    1.122774e-03    4.733841e-03   -3.650987e+03    9.801756e+00   -5.306718e+02    2.445820e-01   -7.637322e-02   -9.255959e+61
   8.928698e+01    8.928698e+01    4.994461e+00    4.272789e+00    1.549538e+01    1.503947e-01    1.791976e-01    2.243160e-01    6.759012e-02    6.561577e-02    1.314316e-01    1.620070e-01   -1.679976e-01   -7.637322e-02    6.386425e-01    6.374695e-01    2.382411e-02   -2.711210e-03   -4.115630e-04    2.976438e-03    5.578500e-04    1.122774e-03    4.733841e-03   -3.704037e+03    9.802007e+00   -5.306718e+02    2.543958e-01   -7.637322e-02   -9.255959e+61
   8.938701e+01    8.938701e+01    4.720132e+00    4.003664e+00    1.449386e+01    1.301905e-01    1.550831e-01    2.140654e-01    6.239287e-02    6.147823e-02    1.293808e-01    7.285205e-01   -6.552688e-01   -6.230616e-02    5.938174e-01    5.979411e-01    2.301563e-02   -2.456045e-03   -4.003706e-04    4.407438e-03    5.141698e-04    1.059826e-03    4.686128e-03   -3.756729e+03    9.214581e+00   -5.305884e+02    1.614574e-01   -6.230614e-02   -9.255959e+61
   8.948698e+01    8.948698e+01    4.447113e+00    3.787123e+00    1.390363e+01    9.367597e-02    1.082989e-01    1.947914e-01    5.679623e-02    6.002026e-02    1.272814e-01    1.146038e+00   -8.709614e-01   -4.551199e-02    5.564259e-01    5.824585e-01    2.144042e-02   -2.182565e-03   -1.234456e-04    5.523059e-03    4.439119e-04    9.439019e-04    4.638633e-03   -3.810334e+03    8.812045e+00   -5.307157e+02    1.489334e-01   -4.551199e-02   -9.255959e+61
   8.958701e+01    8.958701e+01    4.447154e+00    3.787454e+00    1.390368e+01    1.005551e-01    1.170899e-01    1.972905e-01    5.679723e-02    6.001737e-02    1.276314e-01    1.146038e+00   -8.709614e-01   -4.551199e-02    5.564259e-01    5.824585e-01    2.144042e-02   -2.182565e-03   -1.234456e-04    5.523059e-03    4.439119e-04    9.439019e-04    4.638633e-03   -3.863421e+03    8.812068e+00   -5.307157e+02    1.645722e-01   -4.551199e-02   -9.255959e+61
   8.968698e+01    8.968698e+01    4.447216e+00    3.787821e+00    1.390376e+01    1.080978e-01    1.266415e-01    2.000728e-01    5.679835e-02    6.001454e-02    1.279820e-01    1.146038e+00   -8.709614e-01   -4.551199e-02    5.564259e-01    5.824585e-01    2.144042e-02   -2.182565e-03   -1.234456e-04    5.523059e-03    4.439119e-04    9.439019e-04    4.638633e-03   -3.916476e+03    8.812118e+00   -5.307157e+02    1.788319e-01   -4.551199e-02   -9.255959e+61
   8.978701e+01    8.978701e+01    4.447304e+00    3.788234e+00    1.390387e+01    1.162289e-01    1.367771e-01    2.031540e-01    5.679959e-02    6.001175e-02    1.283334e-01    1.146038e+00   -8.709614e-01   -4.551199e-02    5.564259e-01    5.824585e-01    2.144042e-02   -2.182565e-03   -1.234456e-04    5.523059e-03    4.439119e-04    9.439019e-04    4.638633e-03   -3.969567e+03    8.812202e+00   -5.307157e+02    1.920532e-01   -4.551199e-02   -9.255959e+61
   8.988698e+01    8.988698e+01    4.447422e+00    3.788701e+00    1.390401e+01    1.247935e-01    1.474770e-01    2.064679e-01    5.680096e-02    6.000902e-02    1.286854e-01    1.146038e+00   -8.709614e-01   -4.551199e-02    5.564259e-01    5.824585e-01    2.144042e-02   -2.182565e-03   -1.234456e-04    5.523059e-03    4.439119e-04    9.439019e-04    4.638633e-03   -4.022622e+03    8.812325e+00   -5.307157e+02    2.044048e-01   -4.551199e-02   -9.255959e+61
   8.998701e+01    8.998701e+01    4.447578e+00    3.789235e+00    1.390418e+01    1.337373e-01    1.585972e-01    2.100271e-01    5.680244e-02    6.000635e-02    1.290383e-01    1.146038e+00   -8.709614e-01   -4.551199e-02    5.564259e-01    5.824585e-01    2.144042e-02   -2.182565e-03   -1.234456e-04    5.523059e-03    4.439119e-04    9.439019e-04    4.638633e-03   -4.075708e+03    8.812492e+00   -5.307157e+02    2.160651e-01   -4.551199e-02   -9.255959e+61
   9.008698e+01    9.008698e+01    4.447780e+00    3.789849e+00    1.390439e+01    1.430093e-01    1.700318e-01    2.138365e-01    5.680405e-02    6.000373e-02    1.293916e-01    1.146038e+00   -8.709614e-01   -4.551199e-02    5.564259e-01    5.824585e-01    2.144042e-02   -2.182565e-03   -1.234456e-04    5.523059e-03    4.439119e-04    9.439019e-04    4.638633e-03   -4.128763e+03    8.812710e+00   -5.307157e+02    2.271145e-01   -4.551199e-02   -9.255959e+61
   9.018701e+01    9.018701e+01    4.448034e+00    3.790556e+00    1.390464e+01    1.525296e-01    1.817527e-01    2.178682e-01    5.680577e-02    6.000115e-02    1.297459e-01    1.146038e+00   -8.709614e-01   -4.551199e-02    5.564259e-01    5.824585e-01    2.144042e-02   -2.182565e-03   -1.234456e-04    5.523059e-03    4.439119e-04    9.439019e-04    4.638633e-03   -4.181854e+03    8.812984e+00   -5.307157e+02    2.376649e-01   -4.551199e-02   -9.255959e+61
   9.028698e+01    9.028698e+01    4.448351e+00    3.791372e+00    1.390493e+01    1.622957e-01    1.937714e-01    2.221048e-01    5.680762e-02    5.999862e-02    1.301006e-01    1.146038e+00   -8.709614e-01   -4.551199e-02    5.564259e-01    5.824585e-01    2.144042e-02   -2.182565e-03   -1.234456e-04    5.523059e-03    4.439119e-04    9.439019e-04    4.638633e-03   -4.234909e+03    8.813319e+00   -5.307157e+02    2.477528e-01   -4.551199e-02   -9.255959e+61
   9.038701e+01    9.038701e+01    4.259849e+00    3.609802e+00    1.318766e+01    1.353036e-01    1.593130e-01    2.003571e-01    4.892808e-02    5.050123e-02    1.275089e-01    1.347069e+00   -9.852400e-01   -3.955484e-02    4.883600e-01    4.783483e-01    1.983292e-02   -2.180172e-03   -3.898179e-05    5.737392e-03    4.309861e-04    9.117555e-04    4.582868e-03   -4.287866e+03    8.388382e+00   -5.306981e+02    1.546740e-01   -3.955483e-02   -9.255959e+61
   9.048698e+01    9.048698e+01    4.059397e+00    3.449796e+00    1.275218e+01    9.107887e-02    1.090375e-01    1.870511e-01    3.983727e-02    4.810131e-02    1.245909e-01    1.517659e+00   -9.943098e-01   -3.517516e-02    4.232899e-01    4.516916e-01    1.844837e-02   -2.157448e-03    9.933294e-05    6.109123e-03    4.264625e-04    8.599764e-04    4.523377e-03   -4.341080e+03    8.091834e+00   -5.307554e+02    1.432633e-01   -3.517514e-02   -9.255959e+61
   9.058701e+01    9.058701e+01    4.059476e+00    3.450140e+00    1.275234e+01    9.584722e-02    1.164783e-01    1.898364e-01    3.981642e-02    4.811073e-02    1.249316e-01    1.517659e+00   -9.943098e-01   -3.517516e-02    4.232899e-01    4.516916e-01    1.844837e-02   -2.157448e-03    9.933294e-05    6.109123e-03    4.264625e-04    8.599764e-04    4.523377e-03   -4.394170e+03    8.091926e+00   -5.307554e+02    1.594591e-01   -3.517514e-02   -9.255959e+61
   9.068698e+01    9.068698e+01    4.059578e+00    3.450523e+00    1.275253e+01    1.008069e-01    1.242154e-01    1.927789e-01    3.979571e-02    4.812023e-02    1.252729e-01    1.517659e+00   -9.943098e-01   -3.517516e-02    4.232899e-01    4.516916e-01    1.844837e-02   -2.157448e-03    9.933294e-05    6.109123e-03    4.264625e-04    8.599764e-04    4.523377e-03   -4.447229e+03    8.092047e+00   -5.307554e+02    1.741381e-01   -3.517514e-02   -9.255959e+61
   9.078701e+01    9.078701e+01    4.059704e+00    3.450952e+00    1.275275e+01    1.059792e-01    1.322988e-01    1.958642e-01    3.977510e-02    4.812982e-02    1.256151e-01    1.517659e+00   -9.943098e-01   -3.517516e-02    4.232899e-01    4.516916e-01    1.844837e-02   -2.157448e-03    9.933294e-05    6.109123e-03    4.264625e-04    8.599764e-04    4.523377e-03   -4.500324e+03    8.092202e+00   -5.307554e+02    1.876903e-01   -3.517514e-02   -9.255959e+61
   9.088698e+01    9.088698e+01    4.059860e+00    3.451436e+00    1.275300e+01    1.113417e-01    1.405261e-01    1.991075e-01    3.975463e-02    4.813950e-02    1.259577e-01    1.517659e+00   -9.943098e-01   -3.517516e-02    4.232899e-01    4.516916e-01    1.844837e-02   -2.157448e-03    9.933294e-05    6.109123e-03    4.264625e-04    8.599764e-04    4.523377e-03   -4.553383e+03    8.092397e+00   -5.307554e+02    2.003110e-01   -3.517514e-02   -9.255959e+61
   9.098701e+01    9.098701e+01    4.060048e+00    3.451985e+00    1.275329e+01    1.168397e-01    1.489843e-01    2.024723e-01    3.973426e-02    4.814927e-02    1.263012e-01    1.517659e+00   -9.943098e-01   -3.517516e-02    4.232899e-01    4.516916e-01    1.844837e-02   -2.157448e-03    9.933294e-05    6.109123e-03    4.264625e-04    8.599764e-04    4.523377e-03   -4.606474e+03    8.092640e+00   -5.307554e+02    2.121965e-01   -3.517514e-02   -9.255959e+61
   9.108698e+01    9.108698e+01    4.060274e+00    3.452608e+00    1.275361e+01    1.225278e-01    1.574649e-01    2.060112e-01    3.971402e-02    4.815911e-02    1.266451e-01    1.517659e+00   -9.943098e-01   -3.517516e-02    4.232899e-01    4.516916e-01    1.844837e-02   -2.157448e-03    9.933294e-05    6.109123e-03    4.264625e-04    8.599764e-04    4.523377e-03   -4.659532e+03    8.092934e+00   -5.307554e+02    2.234373e-01   -3.517514e-02   -9.255959e+61
   9.118701e+01    9.118701e+01    4.060543e+00    3.453317e+00    1.275398e+01    1.283216e-01    1.662374e-01    2.096577e-01    3.969389e-02    4.816906e-02    1.269900e-01    1.517659e+00   -9.943098e-01   -3.517516e-02    4.232899e-01    4.516916e-01    1.844837e-02   -2.157448e-03    9.933294e-05    6.109123e-03    4.264625e-04    8.599764e-04    4.523377e-03   -4.712627e+03    8.093288e+00   -5.307554e+02    2.341534e-01   -3.517514e-02   -9.255959e+61
   9.128698e+01    9.128698e+01    4.060859e+00    3.454124e+00    1.275438e+01    1.342423e-01    1.750974e-01    2.134322e-01    3.967389e-02    4.817908e-02    1.273352e-01    1.517659e+00   -9.943098e-01   -3.517516e-02    4.232899e-01    4.516916e-01    1.844837e-02   -2.157448e-03    9.933294e-05    6.109123e-03    4.264625e-04    8.599764e-04    4.523377e-03   -4.765686e+03    8.093705e+00   -5.307554e+02    2.443863e-01   -3.517514e-02   -9.255959e+61
   9.138701e+01    9.138701e+01    3.921318e+00    3.321359e+00    1.220822e+01    1.194465e-01    1.481865e-01    1.927764e-01    3.669793e-02    4.417264e-02    1.241874e-01    1.396620e+00   -8.020592e-01   -3.940063e-02    3.992620e-01    4.030637e-01    1.788975e-02   -2.085917e-03    1.608851e-04    6.571564e-03    4.207618e-04    8.503227e-04    4.463780e-03   -4.818768e+03    7.768020e+00   -5.307670e+02    1.480116e-01   -3.940061e-02   -9.255959e+61
   9.148698e+01    9.148698e+01    3.766352e+00    3.196992e+00    1.187057e+01    8.485618e-02    1.036064e-01    1.808521e-01    3.057170e-02    4.239835e-02    1.223569e-01    1.343670e+00   -7.588633e-01   -4.356935e-02    3.553405e-01    3.848272e-01    1.703839e-02   -2.074914e-03    1.666906e-04    6.558633e-03    4.191796e-04    8.379851e-04    4.427150e-03   -4.871756e+03    7.538343e+00   -5.307402e+02    1.399761e-01   -4.356933e-02   -9.255959e+61
   9.158701e+01    9.158701e+01    3.766473e+00    3.197360e+00    1.187083e+01    8.822643e-02    1.089078e-01    1.830848e-01    3.053714e-02    4.241504e-02    1.226918e-01    1.343670e+00   -7.588633e-01   -4.356935e-02    3.553405e-01    3.848272e-01    1.703839e-02   -2.074914e-03    1.666906e-04    6.558633e-03    4.191796e-04    8.379851e-04    4.427150e-03   -4.924845e+03    7.538498e+00   -5.307402e+02    1.565125e-01   -4.356933e-02   -9.255959e+61
   9.168698e+01    9.168698e+01    3.766614e+00    3.197765e+00    1.187111e+01    9.167553e-02    1.144260e-01    1.853523e-01    3.050273e-02    4.243177e-02    1.230271e-01    1.343670e+00   -7.588633e-01   -4.356935e-02    3.553405e-01    3.848272e-01    1.703839e-02   -2.074914e-03    1.666906e-04    6.558633e-03    4.191796e-04    8.379851e-04    4.427150e-03   -4.977902e+03    7.538682e+00   -5.307402e+02    1.714439e-01   -4.356933e-02   -9.255959e+61
   9.178701e+01    9.178701e+01    3.766780e+00    3.198216e+00    1.187143e+01    9.520717e-02    1.200435e-01    1.876678e-01    3.046845e-02    4.244857e-02    1.233633e-01    1.343670e+00   -7.588633e-01   -4.356935e-02    3.553405e-01    3.848272e-01    1.703839e-02   -2.074914e-03    1.666906e-04    6.558633e-03    4.191796e-04    8.379851e-04    4.427150e-03   -5.030996e+03    7.538903e+00   -5.307402e+02    1.851934e-01   -4.356933e-02   -9.255959e+61
   9.188698e+01    9.188698e+01    3.766971e+00    3.198714e+00    1.187178e+01    9.889027e-02    1.257291e-01    1.900641e-01    3.043434e-02    4.246542e-02    1.236999e-01    1.343670e+00   -7.588633e-01   -4.356935e-02    3.553405e-01    3.848272e-01    1.703839e-02   -2.074914e-03    1.666906e-04    6.558633e-03    4.191796e-04    8.379851e-04    4.427150e-03   -5.084053e+03    7.539165e+00   -5.307402e+02    1.979734e-01   -4.356933e-02   -9.255959e+61
   9.198701e+01    9.198701e+01    3.767191e+00    3.199269e+00    1.187217e+01    1.026453e-01    1.315586e-01    1.925068e-01    3.040036e-02    4.248234e-02    1.240374e-01    1.343670e+00   -7.588633e-01   -4.356935e-02    3.553405e-01    3.848272e-01    1.703839e-02   -2.074914e-03    1.666906e-04    6.558633e-03    4.191796e-04    8.379851e-04    4.427150e-03   -5.137142e+03    7.539476e+00   -5.307402e+02    2.099912e-01   -4.356933e-02   -9.255959e+61
   9.208698e+01    9.208698e+01    3.767443e+00    3.199885e+00    1.187259e+01    1.064794e-01    1.374467e-01    1.949937e-01    3.036654e-02    4.249930e-02    1.243753e-01    1.343670e+00   -7.588633e-01   -4.356935e-02    3.553405e-01    3.848272e-01    1.703839e-02   -2.074914e-03    1.666906e-04    6.558633e-03    4.191796e-04    8.379851e-04    4.427150e-03   -5.190199e+03    7.539842e+00   -5.307402e+02    2.213440e-01   -4.356933e-02   -9.255959e+61
   9.218701e+01    9.218701e+01    3.767729e+00    3.200572e+00    1.187304e+01    1.103985e-01    1.434195e-01    1.975213e-01    3.033285e-02    4.251633e-02    1.247141e-01    1.343670e+00   -7.588633e-01   -4.356935e-02    3.553405e-01    3.848272e-01    1.703839e-02   -2.074914e-03    1.666906e-04    6.558633e-03    4.191796e-04    8.379851e-04    4.427150e-03   -5.243292e+03    7.540271e+00   -5.307402e+02    2.321568e-01   -4.356933e-02   -9.255959e+61
   9.228698e+01    9.228698e+01    3.768054e+00    3.201335e+00    1.187353e+01    1.143995e-01    1.494525e-01    2.001254e-01    3.029933e-02    4.253340e-02    1.250532e-01    1.343670e+00   -7.588633e-01   -4.356935e-02    3.553405e-01    3.848272e-01    1.703839e-02   -2.074914e-03    1.666906e-04    6.558633e-03    4.191796e-04    8.379851e-04    4.427150e-03   -5.296350e+03    7.540767e+00   -5.307402e+02    2.424740e-01   -4.356933e-02   -9.255959e+61
   9.238701e+01    9.238701e+01    3.659518e+00    3.099009e+00    1.144002e+01    1.051256e-01    1.319040e-01    1.843881e-01    2.878860e-02    4.110194e-02    1.232180e-01    1.210447e+00   -6.118603e-01   -4.720269e-02    3.429682e-01    3.657752e-01    1.678293e-02   -1.979893e-03    2.496568e-04    7.033339e-03    4.153360e-04    8.355973e-04    4.396605e-03   -5.349580e+03    7.281021e+00   -5.308088e+02    1.434671e-01   -4.720268e-02   -9.255959e+61
   9.248698e+01    9.248698e+01    3.535199e+00    2.998784e+00    1.116871e+01    7.979985e-02    9.708878e-02    1.743223e-01    2.489889e-02    3.965990e-02    1.228364e-01    1.091347e+00   -6.156843e-01   -5.221016e-02    3.128354e-01    3.523430e-01    1.618476e-02   -1.932719e-03    2.727411e-04    6.869545e-03    4.105534e-04    8.347766e-04    4.386630e-03   -5.402505e+03    7.096608e+00   -5.307573e+02    1.371380e-01   -5.221015e-02   -9.255959e+61
   9.258701e+01    9.258701e+01    3.535357e+00    2.999181e+00    1.116905e+01    8.251671e-02    1.012563e-01    1.760889e-01    2.485852e-02    3.967498e-02    1.231737e-01    1.091347e+00   -6.156843e-01   -5.221016e-02    3.128354e-01    3.523430e-01    1.618476e-02   -1.932719e-03    2.727411e-04    6.869545e-03    4.105534e-04    8.347766e-04    4.386630e-03   -5.455596e+03    7.096821e+00   -5.307573e+02    1.539794e-01   -5.221015e-02   -9.255959e+61
   9.268698e+01    9.268698e+01    3.535534e+00    2.999613e+00    1.116943e+01    8.535626e-02    1.054821e-01    1.778774e-01    2.481835e-02    3.969009e-02    1.235115e-01    1.091347e+00   -6.156843e-01   -5.221016e-02    3.128354e-01    3.523430e-01    1.618476e-02   -1.932719e-03    2.727411e-04    6.869545e-03    4.105534e-04    8.347766e-04    4.386630e-03   -5.508655e+03    7.097063e+00   -5.307573e+02    1.691346e-01   -5.221015e-02   -9.255959e+61
   9.278701e+01    9.278701e+01    3.535734e+00    3.000085e+00    1.116984e+01    8.827401e-02    1.098168e-01    1.797157e-01    2.477834e-02    3.970523e-02    1.238501e-01    1.091347e+00   -6.156843e-01   -5.221016e-02    3.128354e-01    3.523430e-01    1.618476e-02   -1.932719e-03    2.727411e-04    6.869545e-03    4.105534e-04    8.347766e-04    4.386630e-03   -5.561750e+03    7.097343e+00   -5.307573e+02    1.830577e-01   -5.221015e-02   -9.255959e+61
   9.288698e+01    9.288698e+01    3.535958e+00    3.000602e+00    1.117028e+01    9.125823e-02    1.142475e-01    1.815611e-01    2.473855e-02    3.972040e-02    1.241890e-01    1.091347e+00   -6.156843e-01   -5.221016e-02    3.128354e-01    3.523430e-01    1.618476e-02   -1.932719e-03    2.727411e-04    6.869545e-03    4.105534e-04    8.347766e-04    4.386630e-03   -5.614809e+03    7.097666e+00   -5.307573e+02    1.959770e-01   -5.221015e-02   -9.255959e+61
   9.298701e+01    9.298701e+01    3.536208e+00    3.001169e+00    1.117075e+01    9.434044e-02    1.187354e-01    1.834296e-01    2.469891e-02    3.973561e-02    1.245288e-01    1.091347e+00   -6.156843e-01   -5.221016e-02    3.128354e-01    3.523430e-01    1.618476e-02   -1.932719e-03    2.727411e-04    6.869545e-03    4.105534e-04    8.347766e-04    4.386630e-03   -5.667900e+03    7.098039e+00   -5.307573e+02    2.081101e-01   -5.221015e-02   -9.255959e+61
   9.308698e+01    9.308698e+01    3.536487e+00    3.001790e+00    1.117126e+01    9.746469e-02    1.233027e-01    1.853316e-01    2.465949e-02    3.975084e-02    1.248690e-01    1.091347e+00   -6.156843e-01   -5.221016e-02    3.128354e-01    3.523430e-01    1.618476e-02   -1.932719e-03    2.727411e-04    6.869545e-03    4.105534e-04    8.347766e-04    4.386630e-03   -5.720958e+03    7.098470e+00   -5.307573e+02    2.195602e-01   -5.221015e-02   -9.255959e+61
